Date,Time,Timestamp_ms,Kite_ID,Commanded_Vel_rps,Actual_Vel_rps,Torque_Nm,Tension_N,Line_Length_m,Target_Enabled,Target_Length_m,Remote_Joy,Remote_Active,Pitch_deg,Pitch_Vel_dps,Yaw_deg,Yaw_Vel_dps,Roll_deg,Dive_Conf,AWW_Conf,AF_Conf,Kite_Pitch_deg,Kite_Roll_deg,Kite_Yaw_deg,Kite_Gyro_X,Kite_Gyro_Y,Kite_Gyro_Z,Kite_IMU_Battery
2026-04-17,14:46:45,0,1,-7.9840,-3.1625,0.0954,2.8050,1.4184,0,1.0000,-998,1,13.1921,-0.9792,-17.0328,-20.8243,170.5570,0.200,0.000,0.528,0.0000,0.0000,0.0000,0.0000,0.0000,0.0000,0
2026-04-17,14:46:45,1,1,-7.9840,-2.5883,0.0801,2.3554,1.4422,0,1.0000,-998,1,13.2313,-2.0584,-16.5847,-7.9676,170.4747,0.168,0.000,0.560,0.0000,0.0000,0.0000,0.0000,0.0000,0.0000,0
2026-04-17,14:46:45,1,1,-7.9840,-2.5821,0.0761,2.2397,1.4613,0,1.0000,-998,1,13.4239,3.7382,-15.9645,0.3952,170.4148,0.144,0.000,0.584,0.0000,0.0000,0.0000,0.0000,0.0000,0.0000,0
2026-04-17,14:46:45,2,1,-7.9840,-2.4620,0.1050,3.0875,1.4783,0,1.0000,-998,1,13.4877,0.2638,-15.6131,3.6089,170.4258,0.120,0.000,0.608,0.0000,0.0000,0.0000,0.0000,0.0000,0.0000,0
2026-04-17,14:46:45,3,1,-7.9840,-2.6348,0.1060,3.1178,1.4955,0,1.0000,-998,1,13.0441,-6.8935,-15.3514,4.9075,170.4400,0.096,0.000,0.632,0.0000,0.0000,0.0000,0.0000,0.0000,0.0000,0
2026-04-17,14:46:45,3,1,-7.9840,-2.5880,0.0961,2.8266,1.5135,0,1.0000,-998,1,13.1930,0.2731,-15.5552,1.3427,170.4085,0.072,0.000,0.656,0.0000,0.0000,0.0000,0.0000,0.0000,0.0000,0
2026-04-17,14:46:45,4,1,-7.9840,-2.5317,0.0543,1.5966,1.5314,0,1.0000,-998,1,13.4167,3.5285,-15.6880,-0.2479,170.4532,0.048,0.000,0.680,0.0000,0.0000,0.0000,0.0000,0.0000,0.0000,0
2026-04-17,14:46:45,5,1,-7.9840,-2.0790,0.1227,3.6096,1.5516,0,1.0000,-998,1,13.1475,-5.7539,-15.5062,1.3987,170.4739,0.016,0.000,0.712,0.0000,0.0000,0.0000,0.0000,0.0000,0.0000,0
2026-04-17,14:46:45,6,1,-7.9840,-2.0918,0.1146,3.3695,1.5657,0,1.0000,-998,1,12.4475,-13.0794,-15.5884,0.2661,170.4888,0.000,0.000,0.736,0.0000,0.0000,0.0000,0.0000,0.0000,0.0000,0
2026-04-17,14:46:45,7,1,-7.9840,-2.1932,0.1073,3.1568,1.5815,0,1.0000,-998,1,12.8699,2.1280,-15.6345,-0.3483,170.4265,0.000,0.000,0.760,0.0000,0.0000,0.0000,0.0000,0.0000,0.0000,0
2026-04-17,14:46:45,8,1,-7.9840,-2.4429,0.0907,2.6690,1.6020,0,1.0000,-998,1,12.9707,1.4064,-15.7111,-0.8321,170.5278,0.000,0.000,0.783,0.0000,0.0000,0.0000,0.0000,0.0000,0.0000,0
2026-04-17,14:46:45,9,1,-7.9840,-2.5266,0.0722,2.1241,1.6201,0,1.0000,-998,1,13.0563,1.8378,-15.5043,1.3333,170.4181,0.000,0.000,0.790,0.0000,0.0000,0.0000,0.0000,0.0000,0.0000,0
2026-04-17,14:46:45,9,1,-7.9840,-2.0298,0.0830,2.4402,1.6377,0,1.0000,-998,1,13.3978,7.4161,-15.4969,0.8602,170.4613,0.000,0.000,0.814,0.0000,0.0000,0.0000,0.0000,0.0000,0.0000,0
2026-04-17,14:46:45,10,1,-7.9840,-2.2459,0.0808,2.3765,1.6570,0,1.0000,-998,1,12.5700,-12.3352,-15.2281,2.9926,170.4732,0.000,0.000,0.819,0.0000,0.0000,0.0000,0.0000,0.0000,0.0000,0
2026-04-17,14:46:45,11,1,-7.9840,-2.3812,0.0793,2.3327,1.6737,0,1.0000,-998,1,12.8697,1.0385,-15.1094,3.0356,170.4545,0.000,0.000,0.817,0.0000,0.0000,0.0000,0.0000,0.0000,0.0000,0
2026-04-17,14:46:45,12,1,-7.9840,-1.9748,0.1193,3.5102,1.6947,0,1.0000,-998,1,12.9224,0.1020,-14.8655,4.6866,170.5474,0.000,0.000,0.831,0.0000,0.0000,0.0000,0.0000,0.0000,0.0000,0
2026-04-17,14:46:45,12,1,-7.9840,-1.8942,0.1422,4.1818,1.7069,0,1.0000,-998,1,12.4468,-9.9635,-14.5023,6.5339,170.6220,0.000,0.000,0.855,0.0000,0.0000,0.0000,0.0000,0.0000,0.0000,0
2026-04-17,14:46:45,13,1,-7.9840,-1.9282,0.1454,4.2778,1.7197,0,1.0000,-998,1,12.0824,-9.0994,-14.5146,4.3621,170.5054,0.032,0.000,0.879,0.0000,0.0000,0.0000,0.0000,0.0000,0.0000,0
2026-04-17,14:46:45,14,1,-7.9840,-2.0081,0.0869,2.5547,1.7339,0,1.0000,-998,1,13.1747,19.1467,-14.3075,4.4720,170.3921,0.048,0.000,0.911,0.0000,0.0000,0.0000,0.0000,0.0000,0.0000,0
2026-04-17,14:46:45,15,1,-7.9840,-2.2716,0.0963,2.8322,1.7500,0,1.0000,-998,1,12.8311,-0.4149,-14.3971,2.3142,170.4796,0.024,0.000,0.935,0.0000,0.0000,0.0000,0.0000,0.0000,0.0000,0
2026-04-17,14:46:45,16,1,-7.9840,-2.4126,0.0932,2.7421,1.7665,0,1.0000,-998,1,12.4454,-5.8307,-14.4623,0.9396,170.3896,0.000,0.000,0.959,0.0000,0.0000,0.0000,0.0000,0.0000,0.0000,0
2026-04-17,14:46:45,18,1,-7.9840,-1.8338,0.0810,2.3820,1.7866,0,1.0000,-998,1,12.7962,5.8161,-15.0770,-5.2680,170.5402,0.000,0.000,0.991,0.0000,0.0000,0.0000,0.0000,0.0000,0.0000,0
2026-04-17,14:46:45,18,1,-7.9840,-1.6975,0.0806,2.3720,1.7987,0,1.0000,-998,1,12.8806,2.1205,-15.4795,-7.2549,170.5022,0.000,0.000,1.000,0.0000,0.0000,0.0000,0.0000,0.0000,0.0000,0
2026-04-17,14:46:45,19,1,-7.9840,-1.9259,0.0741,2.1787,1.8109,0,1.0000,-998,1,12.4312,-6.8577,-15.9372,-9.2678,170.5651,0.000,0.000,1.000,0.0000,0.0000,0.0000,0.0000,0.0000,0.0000,0
2026-04-17,14:46:45,20,1,-7.9840,-1.7302,0.0735,2.1621,1.8266,0,1.0000,-998,1,12.7961,5.0244,-16.2659,-8.9196,170.4806,0.000,0.000,1.000,0.0000,0.0000,0.0000,0.0000,0.0000,0.0000,0
2026-04-17,14:46:45,20,1,-7.9840,-1.5514,0.0777,2.2865,1.8369,0,1.0000,-998,1,12.4454,-5.4765,-16.4611,-7.8707,170.5527,0.000,0.000,1.000,0.0000,0.0000,0.0000,0.0000,0.0000,0.0000,0
2026-04-17,14:46:45,21,1,-7.9840,-1.5727,0.0783,2.3036,1.8486,0,1.0000,-998,1,12.1299,-6.0217,-16.3623,-4.3492,170.4895,0.000,0.000,1.000,0.0000,0.0000,0.0000,0.0000,0.0000,0.0000,0
2026-04-17,14:46:45,22,1,-7.9840,-1.6631,0.0496,1.4574,1.8642,0,1.0000,-998,1,11.9373,-5.5794,-16.4516,-3.5519,170.5253,0.000,0.000,1.000,0.0000,0.0000,0.0000,0.0000,0.0000,0.0000,0
2026-04-17,14:46:45,23,1,-7.9840,-1.6240,0.0731,2.1488,1.8769,0,1.0000,-998,1,12.3250,5.6497,-16.3137,-1.0399,170.4779,0.000,0.000,1.000,0.0000,0.0000,0.0000,0.0000,0.0000,0.0000,0
2026-04-17,14:46:45,23,1,-7.9840,-1.6405,0.0569,1.6744,1.8887,0,1.0000,-998,1,11.9038,-6.3695,-16.3510,-1.1747,170.5737,0.000,0.000,1.000,0.0000,0.0000,0.0000,0.0000,0.0000,0.0000,0
2026-04-17,14:46:45,24,1,-7.9840,-1.6286,0.0638,1.8774,1.9000,0,1.0000,-998,1,11.8200,-3.0645,-16.3832,-1.0854,170.5277,0.000,0.000,1.000,0.0000,0.0000,0.0000,0.0000,0.0000,0.0000,0
2026-04-17,14:46:45,24,1,-7.9840,-1.1748,0.0906,2.6639,1.9089,0,1.0000,-998,1,11.7065,-5.0897,-16.4351,-1.3640,170.5868,0.000,0.000,1.000,0.0000,0.0000,0.0000,0.0000,0.0000,0.0000,0
2026-04-17,14:46:45,26,1,-1.3385,-1.3330,0.0912,2.6825,1.9177,0,1.0000,-998,0,10.8236,-16.4884,-16.7274,-3.6739,170.5868,0.032,0.000,1.000,0.0000,0.0000,0.0000,0.0000,0.0000,0.0000,0
2026-04-17,14:46:45,27,1,-1.3385,-1.2394,0.0754,2.2172,1.9269,0,1.0000,-998,0,11.3437,1.5295,-17.0610,-5.7623,170.5466,0.080,0.000,1.000,0.0000,0.0000,0.0000,0.0000,0.0000,0.0000,0
2026-04-17,14:46:45,28,1,-1.3385,-1.3939,0.0826,2.4281,1.9364,0,1.0000,-998,0,10.9421,-6.7481,-17.8108,-11.0902,170.6396,0.080,0.000,1.000,0.0000,0.0000,0.0000,0.0000,0.0000,0.0000,0
2026-04-17,14:46:45,29,1,-1.3385,-1.4356,0.0833,2.4487,1.9459,0,1.0000,-998,0,10.8555,-4.4872,-18.2408,-11.5722,170.5759,0.080,0.000,1.000,0.0000,0.0000,0.0000,0.0000,0.0000,0.0000,0
2026-04-17,14:46:45,29,1,-1.3385,-1.1416,0.0567,1.6667,1.9550,0,1.0000,-998,0,10.8743,-1.2978,-18.8753,-13.7967,170.6669,0.056,0.000,1.000,0.0000,0.0000,0.0000,0.0000,0.0000,0.0000,0
2026-04-17,14:46:45,30,1,-1.3385,-1.3099,0.0559,1.6448,1.9646,0,1.0000,-998,0,10.9105,0.9421,-19.1997,-12.3025,170.5352,0.032,0.000,1.000,0.0000,0.0000,0.0000,0.0000,0.0000,0.0000,0
2026-04-17,14:46:45,31,1,-0.9775,-1.1603,0.0281,0.8276,1.9732,0,1.0000,-998,0,11.6996,13.8094,-19.6211,-12.5025,170.5860,0.008,0.000,1.000,0.0000,0.0000,0.0000,0.0000,0.0000,0.0000,0
2026-04-17,14:46:45,31,1,-0.5744,-0.7132,0.0588,1.7304,1.9793,0,1.0000,-998,0,11.6977,3.9091,-20.1522,-13.2574,170.5773,0.000,0.000,1.000,0.0000,0.0000,0.0000,0.0000,0.0000,0.0000,0
2026-04-17,14:46:45,32,1,-0.5744,-0.5338,0.0565,1.6619,1.9839,0,1.0000,-998,0,10.7115,-15.1863,-20.5259,-12.5245,170.5376,0.000,0.000,1.000,0.0000,0.0000,0.0000,0.0000,0.0000,0.0000,0
2026-04-17,14:46:45,33,1,-0.5744,-0.4293,0.0475,1.3967,1.9878,0,1.0000,-998,0,10.1372,-13.8110,-20.8524,-11.3758,170.5159,0.032,0.000,1.000,0.0000,0.0000,0.0000,0.0000,0.0000,0.0000,0
2026-04-17,14:46:45,34,1,-0.5744,-0.7161,0.0778,2.2890,1.9928,0,1.0000,-998,0,10.6031,1.9601,-20.8953,-8.1999,170.4900,0.080,0.000,1.000,0.0000,0.0000,0.0000,0.0000,0.0000,0.0000,0
2026-04-17,14:46:45,62,1,-0.5744,-0.6628,0.0902,2.6531,1.9980,0,1.0000,-998,0,10.6241,0.5129,-20.7942,-4.7087,170.4957,0.056,0.000,1.000,0.0000,0.0000,0.0000,0.0000,0.0000,0.0000,0
2026-04-17,14:46:45,63,1,-0.5744,-0.4786,0.0721,2.1217,2.0014,0,1.0000,-998,0,10.0759,-10.2662,-20.6832,-2.1686,170.4590,0.032,0.000,1.000,0.0000,0.0000,0.0000,0.0000,0.0000,0.0000,0
2026-04-17,14:46:45,64,1,-0.5744,-0.3773,0.0548,1.6109,2.0050,0,1.0000,-998,0,9.7164,-8.2478,-20.7170,-1.8338,170.4829,0.080,0.000,1.000,0.0000,0.0000,0.0000,0.0000,0.0000,0.0000,0
2026-04-17,14:46:45,64,1,-0.5744,-0.5139,0.0529,1.5567,2.0086,0,1.0000,-998,0,10.2673,5.7197,-20.6279,-0.4034,170.4257,0.080,0.000,1.000,0.0000,0.0000,0.0000,0.0000,0.0000,0.0000,0
2026-04-17,14:46:45,65,1,-7.9840,-0.3844,0.0222,0.6518,2.0125,0,1.0000,-998,1,11.0964,16.1579,-20.6413,-0.1504,170.4080,0.048,0.000,1.000,0.0000,0.0000,0.0000,0.0000,0.0000,0.0000,0
2026-04-17,14:46:45,65,1,-7.9840,0.0203,0.0220,0.6458,2.0146,0,1.0000,-998,1,11.8265,19.2169,-20.5089,1.0597,170.3841,0.024,0.000,1.000,0.0000,0.0000,0.0000,0.0000,0.0000,0.0000,0
2026-04-17,14:46:45,66,1,-7.9840,-0.1677,0.0180,0.5290,2.0154,0,1.0000,-998,1,11.0777,-6.2064,-20.7959,-2.0402,170.4533,0.000,0.000,1.000,0.0000,0.0000,0.0000,0.0000,0.0000,0.0000,0
2026-04-17,14:46:45,68,1,-7.9840,-0.1655,0.0147,0.4311,2.0174,0,1.0000,-998,1,9.9275,-18.6101,-21.2389,-5.0712,170.3944,0.000,0.000,1.000,0.0000,0.0000,0.0000,0.0000,0.0000,0.0000,0
2026-04-17,14:46:45,69,1,-7.9840,-0.0101,0.0161,0.4730,2.0179,0,1.0000,-998,1,9.4305,-15.8933,-21.1241,-2.3044,170.4300,0.000,0.000,1.000,0.0000,0.0000,0.0000,0.0000,0.0000,0.0000,0
2026-04-17,14:46:45,70,1,-7.9840,0.0114,0.0093,0.2732,2.0178,0,1.0000,-998,1,9.9313,3.7685,-20.4643,4.7957,170.3444,0.000,0.000,0.998,0.0000,0.0000,0.0000,0.0000,0.0000,0.0000,0
2026-04-17,14:46:45,70,1,-7.9840,-0.0015,0.0080,0.2349,2.0178,0,1.0000,-998,1,11.0185,20.9877,-19.7488,10.4301,170.3247,0.000,0.000,0.995,0.0000,0.0000,0.0000,0.0000,0.0000,0.0000,0
2026-04-17,14:46:45,71,1,-7.9840,-0.0082,0.0092,0.2715,2.0178,0,1.0000,-998,1,11.1699,10.2050,-18.9041,15.3197,170.3298,0.000,0.000,0.993,0.0000,0.0000,0.0000,0.0000,0.0000,0.0000,0
2026-04-17,14:46:45,71,1,-7.9840,0.0436,0.0042,0.1225,2.0177,0,1.0000,-998,1,10.9593,0.9274,-17.9876,19.3492,170.2739,0.000,0.000,0.990,0.0000,0.0000,0.0000,0.0000,0.0000,0.0000,0
2026-04-17,14:46:45,72,1,-7.9840,0.0169,-0.0010,0.0282,2.0174,0,1.0000,-998,1,10.7757,-3.4929,-16.8805,22.2478,170.3362,0.000,0.000,0.987,0.0000,0.0000,0.0000,0.0000,0.0000,0.0000,0
2026-04-17,14:46:45,73,1,-7.9840,-0.0050,0.0000,0.0004,2.0174,0,1.0000,-998,1,10.5979,-4.1092,-16.0285,22.8693,170.2533,0.000,0.000,0.985,0.0000,0.0000,0.0000,0.0000,0.0000,0.0000,0
2026-04-17,14:46:45,74,1,-7.9840,0.0096,-0.0006,0.0187,2.0173,0,1.0000,-998,1,10.2070,-8.0211,-15.2559,22.8871,170.3020,0.000,0.000,0.982,0.0000,0.0000,0.0000,0.0000,0.0000,0.0000,0
2026-04-17,14:46:45,74,1,-7.9840,-0.0141,-0.0025,0.0741,2.0171,0,1.0000,-998,1,9.5573,-12.3638,-14.1260,24.2084,170.2050,0.000,0.000,0.979,0.0000,0.0000,0.0000,0.0000,0.0000,0.0000,0
2026-04-17,14:46:45,75,1,-7.9840,-0.0093,-0.0025,0.0749,2.0172,0,1.0000,-998,1,9.2735,-10.3663,-13.5585,21.8564,170.2446,0.000,0.000,0.977,0.0000,0.0000,0.0000,0.0000,0.0000,0.0000,0
2026-04-17,14:46:45,76,1,-7.9840,0.0018,-0.0042,0.1233,2.0171,0,1.0000,-998,1,8.8191,-12.1243,-13.3354,16.9078,170.1976,0.000,0.000,0.974,0.0000,0.0000,0.0000,0.0000,0.0000,0.0000,0
2026-04-17,14:46:45,77,1,-7.9840,-0.0068,-0.0022,0.0636,2.0172,0,1.0000,-998,1,8.5399,-9.9516,-13.2623,12.2172,170.1887,0.000,0.000,0.972,0.0000,0.0000,0.0000,0.0000,0.0000,0.0000,0
2026-04-17,14:46:45,78,1,-7.9840,0.0092,-0.0018,0.0535,2.0172,0,1.0000,-998,1,8.0747,-12.7161,-13.4264,6.6750,170.2258,0.000,0.000,0.970,0.0000,0.0000,0.0000,0.0000,0.0000,0.0000,0
2026-04-17,14:46:45,79,1,-7.9840,-0.6304,0.0272,0.8003,2.0601,0,1.0000,-998,1,5.4742,6.5001,-9.7843,-3.8318,170.3071,0.000,0.000,1.000,0.0000,0.0000,0.0000,0.0000,0.0000,0.0000,0
2026-04-17,14:46:45,110,1,-7.9840,-0.5481,0.0409,1.2018,2.0643,0,1.0000,-998,1,5.7862,8.1909,-9.8543,-2.6104,170.3629,0.000,0.000,1.000,0.0000,0.0000,0.0000,0.0000,0.0000,0.0000,0
2026-04-17,14:46:45,111,1,-7.9840,-0.7728,0.0533,1.5666,2.0702,0,1.0000,-998,1,5.4438,-3.2727,-9.8774,-3.2790,170.3499,0.000,0.000,1.000,0.0000,0.0000,0.0000,0.0000,0.0000,0.0000,0
2026-04-17,14:46:45,114,1,-7.9840,-0.7306,0.0318,0.9357,2.0764,0,1.0000,-998,1,5.8400,5.1183,-10.0547,-4.0365,170.3304,0.000,0.000,1.000,0.0000,0.0000,0.0000,0.0000,0.0000,0.0000,0
2026-04-17,14:46:45,150,1,-7.9840,-0.4207,0.0532,1.5660,2.0813,0,1.0000,-998,1,6.3321,18.7643,-11.0287,-19.0071,170.3218,0.000,0.000,1.000,0.0000,0.0000,0.0000,0.0000,0.0000,0.0000,0
2026-04-17,14:46:45,185,1,-7.9840,-0.6522,0.0628,1.8476,2.0857,0,1.0000,-998,1,5.8921,-17.1974,-11.9649,-23.5591,170.3101,0.000,0.000,1.000,0.0000,0.0000,0.0000,0.0000,0.0000,0.0000,0
2026-04-17,14:46:45,220,1,-7.9840,-0.6499,0.0386,1.1350,2.0907,0,1.0000,-998,1,6.3348,24.1859,-12.2603,-18.9786,170.2086,0.000,0.000,1.000,0.0000,0.0000,0.0000,0.0000,0.0000,0.0000,0
2026-04-17,14:46:45,255,1,-7.9840,-0.7646,0.0304,0.8948,2.0967,0,1.0000,-998,1,6.4544,1.0838,-12.3496,-10.6542,170.2460,0.000,0.000,1.000,0.0000,0.0000,0.0000,0.0000,0.0000,0.0000,0
2026-04-17,14:46:45,292,1,-7.9840,-0.8243,0.0425,1.2504,2.1028,0,1.0000,-998,1,7.0456,13.2499,-12.7616,-14.8255,170.1782,0.000,0.000,1.000,0.0000,0.0000,0.0000,0.0000,0.0000,0.0000,0
2026-04-17,14:46:45,327,1,-7.9840,-0.7182,0.0226,0.6645,2.1088,0,1.0000,-998,1,6.8184,-2.5292,-13.5093,-23.5455,170.2123,0.000,0.000,1.000,0.0000,0.0000,0.0000,0.0000,0.0000,0.0000,0
2026-04-17,14:46:45,362,1,-7.9840,-0.2889,0.0615,1.8094,2.1119,0,1.0000,-998,1,6.7795,-10.2452,-13.1137,3.6891,170.2499,0.000,0.000,1.000,0.0000,0.0000,0.0000,0.0000,0.0000,0.0000,0
2026-04-17,14:46:45,398,1,-7.9840,-0.5790,0.0735,2.1616,2.1155,0,1.0000,-998,1,5.2240,-29.8152,-12.5603,11.7080,170.1826,0.048,0.000,1.000,0.0000,0.0000,0.0000,0.0000,0.0000,0.0000,0
2026-04-17,14:46:45,434,1,-7.9840,-0.6148,0.0594,1.7471,2.1204,0,1.0000,-998,1,6.7431,40.5726,-12.0465,5.4258,170.0981,0.064,0.000,1.000,0.0000,0.0000,0.0000,0.0000,0.0000,0.0000,0
2026-04-17,14:46:45,470,1,-7.9840,-0.8386,0.0339,0.9957,2.1262,0,1.0000,-998,1,6.5017,-11.0682,-13.8736,-35.5967,170.2287,0.032,0.000,1.000,0.0000,0.0000,0.0000,0.0000,0.0000,0.0000,0
2026-04-17,14:46:45,506,1,-7.9840,-0.9265,0.0426,1.2543,2.1333,0,1.0000,-998,1,7.3338,26.9396,-17.1872,-86.9461,170.0916,0.000,0.000,1.000,0.0000,0.0000,0.0000,0.0000,0.0000,0.0000,0
2026-04-17,14:46:45,542,1,-7.9840,-0.5331,0.0529,1.5570,2.1393,0,1.0000,-998,1,7.2773,-3.4816,-20.8733,-105.8157,170.2945,0.000,0.000,1.000,0.0000,0.0000,0.0000,0.0000,0.0000,0.0000,0
2026-04-17,14:46:45,578,1,-7.9840,-0.5589,0.0595,1.7492,2.1435,0,1.0000,-998,1,6.3073,-29.7037,-22.8259,-72.5938,170.1729,0.016,0.000,1.000,0.0000,0.0000,0.0000,0.0000,0.0000,0.0000,0
2026-04-17,14:46:45,614,1,-7.9840,-0.7450,0.0674,1.9815,2.1492,0,1.0000,-998,1,5.7740,-2.1382,-23.8851,-45.8545,170.1628,0.080,0.000,1.000,0.0000,0.0000,0.0000,0.0000,0.0000,0.0000,0
2026-04-17,14:46:45,649,1,-7.9840,-0.8332,0.0383,1.1258,2.1551,0,1.0000,-998,1,6.3601,8.8862,-25.2988,-43.0292,170.0113,0.096,0.000,1.000,0.0000,0.0000,0.0000,0.0000,0.0000,0.0000,0
2026-04-17,14:46:45,685,1,-7.9840,-0.9845,0.0350,1.0308,2.1628,0,1.0000,-998,1,6.8088,23.6554,-27.0761,-54.3057,170.1574,0.064,0.000,1.000,0.0000,0.0000,0.0000,0.0000,0.0000,0.0000,0
2026-04-17,14:46:45,721,1,-7.9840,-0.8810,0.0282,0.8285,2.1698,0,1.0000,-998,1,7.6636,12.6323,-29.3115,-63.8801,170.0677,0.032,0.000,1.000,0.0000,0.0000,0.0000,0.0000,0.0000,0.0000,0
2026-04-17,14:46:45,757,1,-7.9840,-0.8312,0.0601,1.7691,2.1759,0,1.0000,-998,1,6.2801,-35.3876,-29.9252,-33.0508,170.1479,0.000,0.000,1.000,0.0000,0.0000,0.0000,0.0000,0.0000,0.0000,0
2026-04-17,14:46:45,793,1,-7.9840,-0.9295,0.0578,1.6991,2.1830,0,1.0000,-998,1,6.1202,2.7652,-29.8757,-13.2973,170.0344,0.064,0.000,1.000,0.0000,0.0000,0.0000,0.0000,0.0000,0.0000,0
2026-04-17,14:46:45,831,1,-7.9840,-1.1025,0.0446,1.3127,2.1912,0,1.0000,-998,1,6.1152,0.3564,-29.5296,1.1036,170.0880,0.088,0.000,1.000,0.0000,0.0000,0.0000,0.0000,0.0000,0.0000,0
2026-04-17,14:46:45,867,1,-7.9840,-1.1228,0.0263,0.7746,2.2001,0,1.0000,-998,1,7.3764,40.2619,-28.4283,22.2239,169.9336,0.056,0.000,1.000,0.0000,0.0000,0.0000,0.0000,0.0000,0.0000,0
2026-04-17,14:46:45,903,1,-7.9840,-0.7862,0.0725,2.1326,2.2066,0,1.0000,-998,1,7.0492,-25.8603,-27.1997,32.4280,170.1332,0.024,0.000,1.000,0.0000,0.0000,0.0000,0.0000,0.0000,0.0000,0
2026-04-17,14:46:46,939,1,-7.9840,-0.8712,0.0808,2.3775,2.2135,0,1.0000,-998,1,5.6776,-21.2922,-25.8665,38.1997,170.0067,0.064,0.000,1.000,0.0000,0.0000,0.0000,0.0000,0.0000,0.0000,0
2026-04-17,14:46:46,975,1,-7.9840,-1.0487,0.0645,1.8982,2.2206,0,1.0000,-998,1,5.7884,-6.7097,-24.4893,40.8724,170.1302,0.128,0.000,1.000,0.0000,0.0000,0.0000,0.0000,0.0000,0.0000,0
2026-04-17,14:46:46,1011,1,-7.9840,-1.1462,0.0395,1.1604,2.2298,0,1.0000,-998,1,6.5040,32.9332,-22.9324,45.5352,170.0359,0.144,0.000,1.000,0.0000,0.0000,0.0000,0.0000,0.0000,0.0000,0
2026-04-17,14:46:46,1046,1,-7.9840,-0.8912,0.0628,1.8472,2.2381,0,1.0000,-998,1,7.8672,30.8227,-21.0966,55.3307,170.1401,0.112,0.000,1.000,0.0000,0.0000,0.0000,0.0000,0.0000,0.0000,0
2026-04-17,14:46:46,1082,1,-7.9840,-0.9503,0.0546,1.6070,2.2456,0,1.0000,-998,1,6.3559,-40.7117,-18.5357,73.1404,170.1136,0.080,0.000,1.000,0.0000,0.0000,0.0000,0.0000,0.0000,0.0000,0
2026-04-17,14:46:46,1118,1,-7.9840,-1.3177,0.0541,1.5905,2.2550,0,1.0000,-998,1,5.7950,-9.1038,-16.2221,68.7189,170.1068,0.144,0.000,1.000,0.0000,0.0000,0.0000,0.0000,0.0000,0.0000,0
2026-04-17,14:46:46,1153,1,-7.9840,-1.0872,0.0646,1.9002,2.2641,0,1.0000,-998,1,6.7745,31.6636,-16.2480,22.4930,170.1812,0.160,0.000,1.000,0.0000,0.0000,0.0000,0.0000,0.0000,0.0000,0
2026-04-17,14:46:46,1188,1,-7.9840,-1.1911,0.0729,2.1433,2.2723,0,1.0000,-998,1,7.1642,1.5005,-15.3378,31.1673,170.1259,0.128,0.000,1.000,0.0000,0.0000,0.0000,0.0000,0.0000,0.0000,0
2026-04-17,14:46:46,1224,1,-7.9840,-1.2634,0.0563,1.6573,2.2811,0,1.0000,-998,1,6.8628,-8.8485,-13.3803,48.2933,170.1786,0.096,0.000,1.000,0.0000,0.0000,0.0000,0.0000,0.0000,0.0000,0
2026-04-17,14:46:46,1259,1,-7.9840,-1.3157,0.0286,0.8411,2.2912,0,1.0000,-998,1,6.6874,3.0537,-13.8808,1.8369,170.1400,0.064,0.000,1.000,0.0000,0.0000,0.0000,0.0000,0.0000,0.0000,0
2026-04-17,14:46:46,1295,1,-7.9840,-0.9445,0.0843,2.4786,2.2988,0,1.0000,-998,1,7.0548,-4.0627,-14.9442,-15.9675,170.2152,0.032,0.000,1.000,0.0000,0.0000,0.0000,0.0000,0.0000,0.0000,0
2026-04-17,14:46:46,1331,1,-7.9840,-0.8984,0.0797,2.3445,2.3060,0,1.0000,-998,1,6.2921,-9.8089,-13.9302,14.0944,170.1547,0.048,0.000,1.000,0.0000,0.0000,0.0000,0.0000,0.0000,0.0000,0
2026-04-17,14:46:46,1366,1,-7.9840,-1.1612,0.0718,2.1125,2.3142,0,1.0000,-998,1,6.4728,-2.2024,-13.3509,19.2649,170.1940,0.040,0.000,1.000,0.0000,0.0000,0.0000,0.0000,0.0000,0.0000,0
2026-04-17,14:46:46,1402,1,-7.9840,-1.2115,0.0348,1.0229,2.3234,0,1.0000,-998,1,6.5719,8.6469,-11.8081,36.1261,170.1002,0.008,0.000,1.000,0.0000,0.0000,0.0000,0.0000,0.0000,0.0000,0
2026-04-17,14:46:46,1438,1,-7.9840,-1.0772,0.0725,2.1325,2.3324,0,1.0000,-998,1,7.4285,19.4506,-12.7590,-9.3940,170.1356,0.000,0.000,1.000,0.0000,0.0000,0.0000,0.0000,0.0000,0.0000,0
2026-04-17,14:46:46,1473,1,-7.9840,-1.1633,0.0531,1.5612,2.3405,0,1.0000,-998,1,6.3282,-33.9446,-13.8112,-20.8997,170.1251,0.000,0.000,1.000,0.0000,0.0000,0.0000,0.0000,0.0000,0.0000,0
2026-04-17,14:46:46,1509,1,-7.9840,-1.3307,0.0411,1.2099,2.3511,0,1.0000,-998,1,6.8700,29.6058,-13.2376,3.9660,170.0444,0.040,0.000,1.000,0.0000,0.0000,0.0000,0.0000,0.0000,0.0000,0
2026-04-17,14:46:46,1544,1,-7.9840,-1.0273,0.0694,2.0414,2.3599,0,1.0000,-998,1,7.4320,6.3508,-15.5300,-55.5640,170.1805,0.008,0.000,1.000,0.0000,0.0000,0.0000,0.0000,0.0000,0.0000,0
2026-04-17,14:46:46,1579,1,-7.9840,-1.0546,0.0687,2.0216,2.3681,0,1.0000,-998,1,6.5298,-18.5228,-20.7078,-122.9965,170.1302,0.000,0.000,1.000,0.0000,0.0000,0.0000,0.0000,0.0000,0.0000,0
2026-04-17,14:46:46,1613,1,-7.9840,-1.2718,0.0682,2.0067,2.3744,0,1.0000,-998,1,6.3352,-11.6178,-22.0165,-98.6301,170.1568,0.032,0.000,1.000,0.0000,0.0000,0.0000,0.0000,0.0000,0.0000,0
2026-04-17,14:46:46,1647,1,-7.9840,-1.4718,0.0493,1.4499,2.3869,0,1.0000,-998,1,6.4431,-0.5262,-23.3297,-59.8643,170.0808,0.024,0.000,1.000,0.0000,0.0000,0.0000,0.0000,0.0000,0.0000,0
2026-04-17,14:46:46,1683,1,-7.9840,-1.4728,0.0455,1.3381,2.3985,0,1.0000,-998,1,7.1288,24.6156,-24.1382,-37.0126,170.1471,0.000,0.000,1.000,0.0000,0.0000,0.0000,0.0000,0.0000,0.0000,0
2026-04-17,14:46:46,1719,1,-7.9840,-1.2263,0.0705,2.0722,2.4092,0,1.0000,-998,1,7.3696,4.5258,-22.7890,16.9572,170.1889,0.000,0.000,1.000,0.0000,0.0000,0.0000,0.0000,0.0000,0.0000,0
2026-04-17,14:46:46,1754,1,-7.9840,-1.4420,0.0672,1.9775,2.4186,0,1.0000,-998,1,5.7113,-53.2336,-20.9648,39.3121,170.1339,0.032,0.000,1.000,0.0000,0.0000,0.0000,0.0000,0.0000,0.0000,0
2026-04-17,14:46:46,1790,1,-7.9840,-1.4274,0.0471,1.3846,2.4301,0,1.0000,-998,1,6.3539,34.7924,-20.0669,34.7713,170.1018,0.096,0.000,1.000,0.0000,0.0000,0.0000,0.0000,0.0000,0.0000,0
2026-04-17,14:46:46,1825,1,-7.9840,-1.4246,0.0489,1.4371,2.4418,0,1.0000,-998,1,6.9258,6.7758,-18.2212,51.0961,170.1832,0.064,0.000,1.000,0.0000,0.0000,0.0000,0.0000,0.0000,0.0000,0
2026-04-17,14:46:46,1860,1,-7.9840,-1.3981,0.0668,1.9642,2.4525,0,1.0000,-998,1,6.9529,6.4119,-15.4462,77.7553,170.0945,0.032,0.000,1.000,0.0000,0.0000,0.0000,0.0000,0.0000,0.0000,0
2026-04-17,14:46:46,1896,1,-7.9840,-1.4985,0.0524,1.5398,2.4631,0,1.0000,-998,1,6.4521,-23.6539,-11.8088,99.2033,170.1163,0.000,0.000,1.000,0.0000,0.0000,0.0000,0.0000,0.0000,0.0000,0
2026-04-17,14:46:47,1931,1,-7.9840,-1.5243,0.0432,1.2716,2.4746,0,1.0000,-998,1,6.1999,5.8045,-9.4902,80.2335,170.0198,0.064,0.000,1.000,0.0000,0.0000,0.0000,0.0000,0.0000,0.0000,0
2026-04-17,14:46:47,1967,1,-7.9840,-1.4583,0.0683,2.0100,2.4859,0,1.0000,-998,1,6.8678,9.0282,-8.0123,55.8708,170.0723,0.032,0.000,1.000,0.0000,0.0000,0.0000,0.0000,0.0000,0.0000,0
2026-04-17,14:46:47,2002,1,-7.9840,-1.5488,0.0632,1.8586,2.4967,0,1.0000,-998,1,6.2952,-16.6870,-7.5938,27.1965,170.0568,0.000,0.000,1.000,0.0000,0.0000,0.0000,0.0000,0.0000,0.0000,0
2026-04-17,14:46:47,2038,1,-7.9840,-1.6175,0.0448,1.3172,2.5084,0,1.0000,-998,1,6.7330,11.1276,-7.8730,3.8287,170.0338,0.000,0.000,1.000,0.0000,0.0000,0.0000,0.0000,0.0000,0.0000,0
2026-04-17,14:46:47,2073,1,-7.9840,-1.3483,0.0637,1.8746,2.5195,0,1.0000,-998,1,6.5665,-2.9920,-8.0178,-5.4335,170.1080,0.000,0.000,1.000,0.0000,0.0000,0.0000,0.0000,0.0000,0.0000,0
2026-04-17,14:46:47,2110,1,-7.9840,-1.6427,0.0610,1.7931,2.5316,0,1.0000,-998,1,6.2689,-7.0602,-8.8761,-17.1922,170.0152,0.000,0.000,1.000,0.0000,0.0000,0.0000,0.0000,0.0000,0.0000,0
2026-04-17,14:46:47,2145,1,-7.9840,-1.4623,0.0893,2.6258,2.5437,0,1.0000,-998,1,6.8861,17.8547,-8.8758,-8.4238,170.1375,0.000,0.000,1.000,0.0000,0.0000,0.0000,0.0000,0.0000,0.0000,0
2026-04-17,14:46:47,2180,1,-7.9840,-1.3311,0.0787,2.3145,2.5534,0,1.0000,-998,1,6.0062,-33.9811,-10.2984,-37.2633,170.0876,0.000,0.000,1.000,0.0000,0.0000,0.0000,0.0000,0.0000,0.0000,0
2026-04-17,14:46:47,2216,1,-7.9840,-1.4929,0.0776,2.2837,2.5651,0,1.0000,-998,1,5.7812,13.0766,-13.4155,-75.8539,170.1243,0.064,0.000,1.000,0.0000,0.0000,0.0000,0.0000,0.0000,0.0000,0
2026-04-17,14:46:47,2252,1,-7.9840,-1.7925,0.0656,1.9295,2.5777,0,1.0000,-998,1,6.0386,-3.4482,-16.7262,-92.8604,170.0656,0.032,0.000,1.000,0.0000,0.0000,0.0000,0.0000,0.0000,0.0000,0
2026-04-17,14:46:47,2287,1,-7.9840,-1.5646,0.0850,2.4991,2.5906,0,1.0000,-998,1,6.7771,29.3395,-19.6366,-93.7200,170.1184,0.000,0.000,1.000,0.0000,0.0000,0.0000,0.0000,0.0000,0.0000,0
2026-04-17,14:46:47,2324,1,-7.9840,-1.5747,0.0851,2.5043,2.6020,0,1.0000,-998,1,5.9593,-44.8804,-22.4110,-84.7593,170.1012,0.000,0.000,1.000,0.0000,0.0000,0.0000,0.0000,0.0000,0.0000,0
2026-04-17,14:46:47,2359,1,-7.9840,-1.5858,0.0626,1.8406,2.6141,0,1.0000,-998,1,5.5632,15.6262,-23.4030,-47.5632,170.0702,0.064,0.000,1.000,0.0000,0.0000,0.0000,0.0000,0.0000,0.0000,0
2026-04-17,14:46:47,2397,1,-7.9840,-1.6562,0.0315,0.9270,2.6283,0,1.0000,-998,1,6.1480,12.0572,-23.5101,-28.9890,170.1566,0.064,0.000,1.000,0.0000,0.0000,0.0000,0.0000,0.0000,0.0000,0
2026-04-17,14:46:47,2434,1,-7.9840,-1.1245,0.0991,2.9156,2.6389,0,1.0000,-998,1,6.9515,25.6438,-22.8890,4.1172,170.1620,0.032,0.000,1.000,0.0000,0.0000,0.0000,0.0000,0.0000,0.0000,0
2026-04-17,14:46:47,2469,1,-7.9840,-1.1609,0.1026,3.0189,2.6470,0,1.0000,-998,1,4.8547,-69.4439,-22.6346,6.9940,170.2228,0.024,0.000,0.999,0.0000,0.0000,0.0000,0.0000,0.0000,0.0000,0
2026-04-17,14:46:47,2504,1,-7.9840,-1.2211,0.0870,2.5590,2.6561,0,1.0000,-998,1,5.1892,34.7032,-21.7304,23.7778,170.0770,0.088,0.000,1.000,0.0000,0.0000,0.0000,0.0000,0.0000,0.0000,0
2026-04-17,14:46:47,2540,1,-7.9840,-1.4980,0.0613,1.8037,2.6666,0,1.0000,-998,1,6.2406,14.1782,-20.0201,44.8498,170.1517,0.056,0.000,1.000,0.0000,0.0000,0.0000,0.0000,0.0000,0.0000,0
2026-04-17,14:46:47,2575,1,-7.9840,-1.5223,0.0668,1.9641,2.6782,0,1.0000,-998,1,7.5578,46.0154,-17.9197,57.1034,170.1022,0.024,0.000,1.000,0.0000,0.0000,0.0000,0.0000,0.0000,0.0000,0
2026-04-17,14:46:47,2610,1,-7.9840,-1.1351,0.0687,2.0214,2.6867,0,1.0000,-998,1,7.3575,-29.3317,-16.7201,44.6472,170.1153,0.000,0.000,1.000,0.0000,0.0000,0.0000,0.0000,0.0000,0.0000,0
2026-04-17,14:46:47,2646,1,-7.9840,-1.4404,0.0703,2.0673,2.6967,0,1.0000,-998,1,4.7929,-44.7591,-15.3154,47.5725,170.0323,0.048,0.000,0.998,0.0000,0.0000,0.0000,0.0000,0.0000,0.0000,0
2026-04-17,14:46:47,2681,1,-7.9840,-1.4935,0.0455,1.3382,2.7075,0,1.0000,-998,1,7.1536,60.5459,-13.3604,56.2982,169.9142,0.064,0.000,1.000,0.0000,0.0000,0.0000,0.0000,0.0000,0.0000,0
2026-04-17,14:46:47,2718,1,-7.9840,-1.3436,0.0423,1.2446,2.7180,0,1.0000,-998,1,7.8608,20.3373,-11.5933,55.0133,170.0966,0.032,0.000,1.000,0.0000,0.0000,0.0000,0.0000,0.0000,0.0000,0
2026-04-17,14:46:47,2753,1,-7.9840,-1.4796,0.0772,2.2702,2.7287,0,1.0000,-998,1,7.9136,-4.5882,-10.3033,44.2470,169.8760,0.000,0.000,1.000,0.0000,0.0000,0.0000,0.0000,0.0000,0.0000,0
2026-04-17,14:46:47,2788,1,-7.9840,-1.5371,0.0587,1.7257,2.7393,0,1.0000,-998,1,6.7607,-35.3949,-10.2985,15.6659,170.1294,0.016,0.000,1.000,0.0000,0.0000,0.0000,0.0000,0.0000,0.0000,0
2026-04-17,14:46:47,2824,1,-7.9840,-1.3918,0.0388,1.1400,2.7509,0,1.0000,-998,1,7.1624,30.1357,-9.8508,15.8976,169.9431,0.056,0.000,1.000,0.0000,0.0000,0.0000,0.0000,0.0000,0.0000,0
2026-04-17,14:46:47,2859,1,-7.9840,-1.2651,0.0756,2.2225,2.7610,0,1.0000,-998,1,8.4165,21.3572,-9.4857,11.6257,170.1843,0.024,0.000,1.000,0.0000,0.0000,0.0000,0.0000,0.0000,0.0000,0
2026-04-17,14:46:47,2894,1,-7.9840,-1.5197,0.0799,2.3497,2.7710,0,1.0000,-998,1,7.3362,-29.1792,-10.3601,-14.5247,170.0053,0.000,0.000,1.000,0.0000,0.0000,0.0000,0.0000,0.0000,0.0000,0
2026-04-17,14:46:48,2930,1,-7.9840,-1.5497,0.0594,1.7464,2.7828,0,1.0000,-998,1,7.5503,11.8109,-11.7545,-31.0298,170.1591,0.000,0.000,1.000,0.0000,0.0000,0.0000,0.0000,0.0000,0.0000,0
2026-04-17,14:46:48,2965,1,-7.9840,-1.6436,0.0373,1.0962,2.7955,0,1.0000,-998,1,7.4161,5.3132,-13.1984,-42.0706,170.0659,0.000,0.000,1.000,0.0000,0.0000,0.0000,0.0000,0.0000,0.0000,0
2026-04-17,14:46:48,3000,1,-7.9840,-1.2480,0.0782,2.3013,2.8052,0,1.0000,-998,1,9.1666,36.3903,-15.2606,-56.8771,169.9814,0.000,0.000,1.000,0.0000,0.0000,0.0000,0.0000,0.0000,0.0000,0
2026-04-17,14:46:48,3036,1,-7.9840,-1.4245,0.0762,2.2423,2.8149,0,1.0000,-998,1,6.9546,-64.3785,-16.7654,-49.4822,170.1705,0.016,0.000,1.000,0.0000,0.0000,0.0000,0.0000,0.0000,0.0000,0
2026-04-17,14:46:48,3071,1,-7.9840,-1.4096,0.0597,1.7545,2.8261,0,1.0000,-998,1,7.9450,43.5520,-17.4440,-31.4779,169.9195,0.056,0.000,1.000,0.0000,0.0000,0.0000,0.0000,0.0000,0.0000,0
2026-04-17,14:46:48,3107,1,-7.9840,-1.3935,0.0496,1.4585,2.8378,0,1.0000,-998,1,8.2168,3.7627,-18.2386,-27.6782,170.1901,0.024,0.000,1.000,0.0000,0.0000,0.0000,0.0000,0.0000,0.0000,0
2026-04-17,14:46:48,3143,1,-7.9840,-1.0821,0.0718,2.1131,2.8476,0,1.0000,-998,1,9.2158,27.5841,-18.9822,-23.9233,169.9468,0.000,0.000,1.000,0.0000,0.0000,0.0000,0.0000,0.0000,0.0000,0
2026-04-17,14:46:48,3182,1,-7.9840,-0.9638,0.0691,2.0337,2.8567,0,1.0000,-998,1,7.9761,-20.2542,-18.9897,-9.5344,170.0296,0.000,0.000,1.000,0.0000,0.0000,0.0000,0.0000,0.0000,0.0000,0
2026-04-17,14:46:48,3218,1,-7.9840,-1.3150,0.0779,2.2904,2.8661,0,1.0000,-998,1,7.7097,8.1725,-18.4835,2.8854,169.7362,0.000,0.000,1.000,0.0000,0.0000,0.0000,0.0000,0.0000,0.0000,0
2026-04-17,14:46:48,3255,1,-7.9840,-1.4722,0.0439,1.2912,2.8764,0,1.0000,-998,1,8.8754,21.8831,-19.1797,-13.0739,170.0134,0.000,0.000,1.000,0.0000,0.0000,0.0000,0.0000,0.0000,0.0000,0
2026-04-17,14:46:48,3290,1,-7.9840,-1.1847,0.0505,1.4859,2.8858,0,1.0000,-998,1,9.8136,24.2165,-19.2230,-3.7431,169.8572,0.000,0.000,1.000,0.0000,0.0000,0.0000,0.0000,0.0000,0.0000,0
2026-04-17,14:46:48,3325,1,-7.9840,-1.4509,0.0553,1.6253,2.8961,0,1.0000,-998,1,8.8441,-27.5951,-18.1836,22.1081,170.1107,0.000,0.000,1.000,0.0000,0.0000,0.0000,0.0000,0.0000,0.0000,0
2026-04-17,14:46:48,3361,1,-7.9840,-1.5175,0.0694,2.0424,2.9075,0,1.0000,-998,1,8.9456,6.8656,-15.5667,64.4975,169.9250,0.000,0.000,1.000,0.0000,0.0000,0.0000,0.0000,0.0000,0.0000,0
2026-04-17,14:46:48,3397,1,-7.9840,-1.4112,0.0516,1.5174,2.9185,0,1.0000,-998,1,8.9872,-1.5645,-12.1804,91.6289,170.0616,0.000,0.000,1.000,0.0000,0.0000,0.0000,0.0000,0.0000,0.0000,0
2026-04-17,14:46:48,3433,1,-7.9840,-1.6550,0.0536,1.5772,2.9309,0,1.0000,-998,1,9.4042,16.4522,-9.4265,83.0910,169.9425,0.000,0.000,1.000,0.0000,0.0000,0.0000,0.0000,0.0000,0.0000,0
2026-04-17,14:46:48,3468,1,-7.9840,-1.5219,0.0883,2.5958,2.9433,0,1.0000,-998,1,9.5030,3.0047,-8.2712,52.0487,170.0261,0.000,0.000,1.000,0.0000,0.0000,0.0000,0.0000,0.0000,0.0000,0
2026-04-17,14:46:48,3503,1,-7.9840,-1.6547,0.0838,2.4638,2.9545,0,1.0000,-998,1,8.7722,-26.2157,-8.8749,3.3971,169.9883,0.000,0.000,1.000,0.0000,0.0000,0.0000,0.0000,0.0000,0.0000,0
2026-04-17,14:46:48,3538,1,-7.9840,-1.7690,0.0735,2.1615,2.9673,0,1.0000,-998,1,9.1709,17.7017,-8.9426,4.3784,169.9977,0.016,0.000,1.000,0.0000,0.0000,0.0000,0.0000,0.0000,0.0000,0
2026-04-17,14:46:48,3574,1,-7.9840,-1.8438,0.0505,1.4854,2.9816,0,1.0000,-998,1,9.3557,10.5485,-8.4308,8.2807,170.0591,0.000,0.000,1.000,0.0000,0.0000,0.0000,0.0000,0.0000,0.0000,0
2026-04-17,14:46:48,3609,1,-7.9840,-1.5461,0.0640,1.8831,2.9949,0,1.0000,-998,1,10.1066,25.4607,-8.9108,-4.0213,169.9439,0.000,0.000,1.000,0.0000,0.0000,0.0000,0.0000,0.0000,0.0000,0
2026-04-17,14:46:48,3645,1,-7.9840,-1.8091,0.0698,2.0530,3.0091,0,1.0000,-998,1,8.9413,-27.9317,-9.2683,-14.1489,170.1625,0.000,0.000,1.000,0.0000,0.0000,0.0000,0.0000,0.0000,0.0000,0
2026-04-17,14:46:48,3680,1,-7.9840,-2.0354,0.0616,1.8125,3.0244,0,1.0000,-998,1,9.4110,14.7558,-11.0677,-40.8278,169.9517,0.000,0.000,1.000,0.0000,0.0000,0.0000,0.0000,0.0000,0.0000,0
2026-04-17,14:46:48,3716,1,-7.9840,-1.7441,0.0680,1.9994,3.0399,0,1.0000,-998,1,9.7237,14.1056,-12.6992,-49.2458,170.1334,0.000,0.000,1.000,0.0000,0.0000,0.0000,0.0000,0.0000,0.0000,0
2026-04-17,14:46:48,3751,1,-7.9840,-1.9473,0.0627,1.8445,3.0549,0,1.0000,-998,1,9.5127,-7.5944,-14.0550,-45.0764,170.0031,0.000,0.000,1.000,0.0000,0.0000,0.0000,0.0000,0.0000,0.0000,0
2026-04-17,14:46:48,3787,1,-7.9840,-1.8093,0.0738,2.1718,3.0707,0,1.0000,-998,1,9.4894,7.0564,-14.7539,-29.7211,170.1497,0.000,0.000,1.000,0.0000,0.0000,0.0000,0.0000,0.0000,0.0000,0
2026-04-17,14:46:48,3822,1,-7.9840,-1.9823,0.0680,1.9987,3.0859,0,1.0000,-998,1,9.1889,-13.4718,-15.6033,-26.9931,170.0686,0.000,0.000,1.000,0.0000,0.0000,0.0000,0.0000,0.0000,0.0000,0
2026-04-17,14:46:48,3858,1,-7.9840,-2.1887,0.0601,1.7674,3.1031,0,1.0000,-998,1,9.5669,21.3331,-15.7037,-11.6587,170.1510,0.000,0.000,1.000,0.0000,0.0000,0.0000,0.0000,0.0000,0.0000,0
2026-04-17,14:46:48,3893,1,-7.9840,-1.8382,0.0756,2.2242,3.1185,0,1.0000,-998,1,10.1148,7.4167,-14.5567,21.3774,170.0817,0.000,0.000,1.000,0.0000,0.0000,0.0000,0.0000,0.0000,0.0000,0
2026-04-17,14:46:49,3929,1,-7.9840,-2.1137,0.0920,2.7072,3.1348,0,1.0000,-998,1,8.8746,-23.1805,-12.7381,43.8245,170.0883,0.032,0.000,1.000,0.0000,0.0000,0.0000,0.0000,0.0000,0.0000,0
2026-04-17,14:46:49,3966,1,-7.9840,-2.1816,0.0805,2.3664,3.1503,0,1.0000,-998,1,8.9957,-7.7315,-12.1482,35.0369,170.0390,0.080,0.000,1.000,0.0000,0.0000,0.0000,0.0000,0.0000,0.0000,0
2026-04-17,14:46:49,4001,1,-7.9840,-2.4272,0.0607,1.7866,3.1699,0,1.0000,-998,1,8.7066,-1.3730,-10.6942,44.2272,170.1061,0.144,0.000,1.000,0.0000,0.0000,0.0000,0.0000,0.0000,0.0000,0
2026-04-17,14:46:49,4037,1,-7.9840,-2.2064,0.0812,2.3886,3.1860,0,1.0000,-998,1,9.6660,4.8583,-8.9916,50.3459,170.0318,0.136,0.000,1.000,0.0000,0.0000,0.0000,0.0000,0.0000,0.0000,0
2026-04-17,14:46:49,4073,1,-7.9840,-2.1588,0.0928,2.7304,3.2024,0,1.0000,-998,1,8.4562,-19.3131,-9.4692,4.8437,170.1008,0.152,0.000,1.000,0.0000,0.0000,0.0000,0.0000,0.0000,0.0000,0
2026-04-17,14:46:49,4108,1,-7.9840,-2.1869,0.0864,2.5414,3.2175,0,1.0000,-998,1,9.2559,6.5407,-10.2218,-13.3218,169.9572,0.144,0.000,1.000,0.0000,0.0000,0.0000,0.0000,0.0000,0.0000,0
2026-04-17,14:46:49,4143,1,-7.9840,-2.2400,0.0858,2.5248,3.2337,0,1.0000,-998,1,8.6181,-6.4716,-12.7376,-59.8472,170.1361,0.160,0.000,1.000,0.0000,0.0000,0.0000,0.0000,0.0000,0.0000,0
2026-04-17,14:46:49,4179,1,-7.9840,-2.4344,0.0879,2.5851,3.2508,0,1.0000,-998,1,8.9163,-6.6227,-15.3841,-77.1616,169.9816,0.128,0.000,1.000,0.0000,0.0000,0.0000,0.0000,0.0000,0.0000,0
2026-04-17,14:46:49,4214,1,-7.9840,-2.4030,0.0815,2.3960,3.2686,0,1.0000,-998,1,8.5089,-5.9370,-16.3699,-40.0592,170.1653,0.120,0.000,1.000,0.0000,0.0000,0.0000,0.0000,0.0000,0.0000,0
2026-04-17,14:46:49,4250,1,-7.9840,-2.3450,0.0591,1.7372,3.2868,0,1.0000,-998,1,8.6727,3.7232,-16.9827,-29.6776,169.9633,0.088,0.000,1.000,0.0000,0.0000,0.0000,0.0000,0.0000,0.0000,0
2026-04-17,14:46:49,4285,1,-7.9840,-1.9817,0.0834,2.4528,3.3036,0,1.0000,-998,1,9.0957,11.4316,-16.9040,-6.3967,170.0500,0.056,0.000,1.000,0.0000,0.0000,0.0000,0.0000,0.0000,0.0000,0
2026-04-17,14:46:49,4320,1,-7.9840,-2.0894,0.0760,2.2353,3.3199,0,1.0000,-998,1,7.9797,-27.2525,-15.8911,19.9858,169.9921,0.072,0.000,1.000,0.0000,0.0000,0.0000,0.0000,0.0000,0.0000,0
2026-04-17,14:46:49,4356,1,-7.9840,-2.3486,0.0613,1.8015,3.3369,0,1.0000,-998,1,8.5508,18.9424,-14.9476,28.8639,170.0798,0.112,0.000,1.000,0.0000,0.0000,0.0000,0.0000,0.0000,0.0000,0
2026-04-17,14:46:49,4391,1,-7.9840,-2.0887,0.0716,2.1053,3.3520,0,1.0000,-998,1,8.8193,-7.9747,-13.9715,28.4463,170.0600,0.080,0.000,1.000,0.0000,0.0000,0.0000,0.0000,0.0000,0.0000,0
2026-04-17,14:46:49,4427,1,-7.9840,-2.1637,0.0745,2.1915,3.3677,0,1.0000,-998,1,8.3862,-6.7455,-13.0899,30.6050,170.0939,0.048,0.000,1.000,0.0000,0.0000,0.0000,0.0000,0.0000,0.0000,0
2026-04-17,14:46:49,4463,1,-7.9840,-1.9743,0.0717,2.1091,3.3821,0,1.0000,-998,1,8.7157,-9.4356,-12.3904,23.6307,170.1004,0.016,0.000,1.000,0.0000,0.0000,0.0000,0.0000,0.0000,0.0000,0
2026-04-17,14:46:49,4499,1,-7.9840,-2.0765,0.0690,2.0305,3.3972,0,1.0000,-998,1,7.8243,-5.0505,-12.5829,5.3450,170.1415,0.056,0.000,1.000,0.0000,0.0000,0.0000,0.0000,0.0000,0.0000,0
2026-04-17,14:46:49,4534,1,-7.9840,-1.5442,0.0761,2.2373,3.4093,0,1.0000,-998,1,9.1003,14.5383,-13.1928,-11.7778,170.1447,0.048,0.000,1.000,0.0000,0.0000,0.0000,0.0000,0.0000,0.0000,0
2026-04-17,14:46:49,4570,1,-7.9840,-1.6657,0.0555,1.6313,3.4220,0,1.0000,-998,1,7.2234,-29.5473,-14.4822,-30.3903,170.1634,0.064,0.000,1.000,0.0000,0.0000,0.0000,0.0000,0.0000,0.0000,0
2026-04-17,14:46:49,4606,1,-7.9840,-1.6390,0.0480,1.4120,3.4359,0,1.0000,-998,1,8.7444,42.6404,-16.0857,-45.4545,170.0495,0.080,0.000,1.000,0.0000,0.0000,0.0000,0.0000,0.0000,0.0000,0
2026-04-17,14:46:49,4641,1,-7.9840,-0.8548,0.0792,2.3293,3.4456,0,1.0000,-998,1,8.8874,6.1742,-18.4195,-66.6910,170.2147,0.048,0.000,1.000,0.0000,0.0000,0.0000,0.0000,0.0000,0.0000,0
2026-04-17,14:46:49,4677,1,-7.9840,-0.9511,0.0736,2.1649,3.4528,0,1.0000,-998,1,7.6165,-40.9703,-20.3069,-60.9583,169.9996,0.040,0.000,1.000,0.0000,0.0000,0.0000,0.0000,0.0000,0.0000,0
2026-04-17,14:46:49,4713,1,-7.9840,-1.1260,0.0633,1.8611,3.4612,0,1.0000,-998,1,7.4393,7.0687,-21.1789,-37.2901,170.1367,0.104,0.000,1.000,0.0000,0.0000,0.0000,0.0000,0.0000,0.0000,0
2026-04-17,14:46:49,4753,1,-7.9840,-1.3064,0.0261,0.7685,3.4708,0,1.0000,-998,1,8.1013,6.4554,-21.4925,-31.4716,170.1594,0.104,0.000,1.000,0.0000,0.0000,0.0000,0.0000,0.0000,0.0000,0
2026-04-17,14:46:49,4789,1,-7.9840,-0.7099,0.0558,1.6402,3.4764,0,1.0000,-998,1,9.1911,17.5344,-22.2799,-27.4638,170.1875,0.072,0.000,1.000,0.0000,0.0000,0.0000,0.0000,0.0000,0.0000,0
2026-04-17,14:46:49,4824,1,-7.9840,-0.7209,0.0333,0.9787,3.4811,0,1.0000,-998,1,7.7652,-42.9495,-22.1616,-5.9137,170.1399,0.064,0.000,1.000,0.0000,0.0000,0.0000,0.0000,0.0000,0.0000,0
2026-04-17,14:46:49,4859,1,-7.9840,-0.6131,0.0370,1.0879,3.4849,0,1.0000,-998,1,7.5113,-5.0764,-22.4859,-6.3225,170.1288,0.128,0.000,1.000,0.0000,0.0000,0.0000,0.0000,0.0000,0.0000,0
2026-04-17,14:46:49,4895,1,-7.9840,-0.8141,0.0310,0.9131,3.4906,0,1.0000,-998,1,7.2891,0.2567,-21.8610,12.7547,170.1523,0.192,0.000,1.000,0.0000,0.0000,0.0000,0.0000,0.0000,0.0000,0
2026-04-17,14:46:50,4930,1,-7.9840,-0.6148,0.0177,0.5211,3.4958,0,1.0000,-998,1,9.0204,44.2531,-20.9984,19.5831,170.0437,0.184,0.000,1.000,0.0000,0.0000,0.0000,0.0000,0.0000,0.0000,0
2026-04-17,14:46:50,4967,1,-7.9840,-0.3460,0.0452,1.3289,3.4988,0,1.0000,-998,1,8.5821,-22.8599,-20.5701,11.3481,170.1200,0.152,0.000,1.000,0.0000,0.0000,0.0000,0.0000,0.0000,0.0000,0
2026-04-17,14:46:50,5002,1,-7.9840,-0.4657,0.0323,0.9489,3.5015,0,1.0000,-998,1,7.3716,-30.1983,-21.2031,-5.2388,170.0253,0.144,0.000,1.000,0.0000,0.0000,0.0000,0.0000,0.0000,0.0000,0
2026-04-17,14:46:50,5037,1,-7.9840,-0.6141,0.0276,0.8104,3.5059,0,1.0000,-998,1,6.5041,-20.2179,-20.6333,9.8303,170.1677,0.208,0.000,1.000,0.0000,0.0000,0.0000,0.0000,0.0000,0.0000,0
2026-04-17,14:46:50,5074,1,-7.9840,-0.5197,0.0177,0.5201,3.5104,0,1.0000,-998,1,7.5683,32.4365,-19.2820,33.5308,170.0266,0.224,0.000,1.000,0.0000,0.0000,0.0000,0.0000,0.0000,0.0000,0
2026-04-17,14:46:50,5109,1,-7.9840,-0.1811,0.0271,0.7984,3.5126,0,1.0000,-998,1,8.3255,11.5708,-17.9334,38.3719,170.1199,0.192,0.000,1.000,0.0000,0.0000,0.0000,0.0000,0.0000,0.0000,0
2026-04-17,14:46:50,5144,1,-7.9840,-0.3597,0.0328,0.9660,3.5149,0,1.0000,-998,1,7.5022,-19.8606,-16.0915,55.0577,170.0728,0.160,0.000,1.000,0.0000,0.0000,0.0000,0.0000,0.0000,0.0000,0
2026-04-17,14:46:50,5180,1,-7.9840,-0.4456,0.0258,0.7590,3.5181,0,1.0000,-998,1,7.2131,-7.3202,-14.0930,55.4866,170.1025,0.176,0.000,1.000,0.0000,0.0000,0.0000,0.0000,0.0000,0.0000,0
2026-04-17,14:46:50,5216,1,-7.9840,-0.0942,0.0408,1.1992,3.5208,0,1.0000,-998,1,7.4320,10.0182,-12.2890,57.8934,170.0496,0.168,0.000,1.000,0.0000,0.0000,0.0000,0.0000,0.0000,0.0000,0
2026-04-17,14:46:50,5251,1,-7.9840,-0.2555,0.0331,0.9721,3.5223,0,1.0000,-998,1,7.7012,4.1685,-10.7336,49.0339,170.0607,0.136,0.000,1.000,0.0000,0.0000,0.0000,0.0000,0.0000,0.0000,0
2026-04-17,14:46:50,5288,1,-7.9840,-0.1627,0.0361,1.0607,3.5242,0,1.0000,-998,1,7.9213,6.4803,-11.2134,4.0110,170.0978,0.104,0.000,1.000,0.0000,0.0000,0.0000,0.0000,0.0000,0.0000,0
2026-04-17,14:46:50,5323,1,-7.9840,-0.1512,0.0193,0.5677,3.5247,0,1.0000,-998,1,7.6690,-12.5401,-12.1560,-16.2691,170.0518,0.072,0.000,1.000,0.0000,0.0000,0.0000,0.0000,0.0000,0.0000,0
2026-04-17,14:46:50,5358,1,-7.9840,-0.0010,0.0126,0.3719,3.5250,0,1.0000,-998,1,7.3316,-7.5512,-11.2890,15.7097,170.0568,0.040,0.000,1.000,0.0000,0.0000,0.0000,0.0000,0.0000,0.0000,0
2026-04-17,14:46:50,5393,1,-7.9840,-0.0094,0.0134,0.3935,3.5250,0,1.0000,-998,1,7.0961,-10.0327,-9.9330,31.1437,170.0189,0.008,0.000,1.000,0.0000,0.0000,0.0000,0.0000,0.0000,0.0000,0
2026-04-17,14:46:50,5429,1,-7.9840,-0.0006,0.0137,0.4043,3.5250,0,1.0000,-998,1,6.8163,-5.6719,-8.2648,47.5807,170.0316,0.000,0.000,1.000,0.0000,0.0000,0.0000,0.0000,0.0000,0.0000,0
2026-04-17,14:46:50,5464,1,-7.9840,-0.0100,0.0154,0.4517,3.5250,0,1.0000,-998,1,6.7660,-4.0481,-6.2692,55.9145,170.0117,0.000,0.000,1.000,0.0000,0.0000,0.0000,0.0000,0.0000,0.0000,0
2026-04-17,14:46:50,5500,1,-7.9840,0.0270,0.0111,0.3269,3.5250,0,1.0000,-998,1,6.5245,-5.5865,-4.7681,50.6087,170.0093,0.000,0.000,1.000,0.0000,0.0000,0.0000,0.0000,0.0000,0.0000,0
2026-04-17,14:46:50,5539,1,-7.9840,0.0115,0.0122,0.3592,3.5250,0,1.0000,-998,1,6.4767,-3.6595,-3.9808,43.1162,170.0117,0.000,0.000,1.000,0.0000,0.0000,0.0000,0.0000,0.0000,0.0000,0
2026-04-17,14:46:50,5575,1,-7.9840,-0.0031,0.0124,0.3635,3.5250,0,1.0000,-998,1,6.3408,-3.7326,-2.7326,40.0558,170.0346,0.000,0.000,1.000,0.0000,0.0000,0.0000,0.0000,0.0000,0.0000,0
2026-04-17,14:46:50,5612,1,-7.9840,0.0078,0.0110,0.3248,3.5250,0,1.0000,-998,1,6.4678,2.7434,-1.7522,32.4621,170.0178,0.000,0.000,1.000,0.0000,0.0000,0.0000,0.0000,0.0000,0.0000,0
2026-04-17,14:46:50,5647,1,-7.9840,0.0007,0.0127,0.3721,3.5250,0,1.0000,-998,1,6.4105,-2.4981,-1.1095,24.4881,170.0303,0.000,0.000,1.000,0.0000,0.0000,0.0000,0.0000,0.0000,0.0000,0
2026-04-17,14:46:50,5682,1,-7.9840,-0.0016,0.0127,0.3721,3.5249,0,1.0000,-998,1,6.3525,-2.3119,-0.5342,19.9927,169.9809,0.000,0.000,1.000,0.0000,0.0000,0.0000,0.0000,0.0000,0.0000,0
2026-04-17,14:46:50,5719,1,-7.9840,0.0050,0.0119,0.3506,3.5249,0,1.0000,-998,1,6.1424,-6.9329,0.0017,16.7419,170.0331,0.000,0.000,1.000,0.0000,0.0000,0.0000,0.0000,0.0000,0.0000,0
2026-04-17,14:46:50,5755,1,-7.9840,-0.0101,0.0122,0.3592,3.5249,0,1.0000,-998,1,6.1203,0.3134,-0.0657,3.7008,169.9829,0.000,0.000,1.000,0.0000,0.0000,0.0000,0.0000,0.0000,0.0000,0
2026-04-17,14:46:50,5790,1,-7.9840,-0.0027,0.0124,0.3657,3.5249,0,1.0000,-998,1,6.2491,2.3236,-0.4155,-7.0172,170.0299,0.000,0.000,1.000,0.0000,0.0000,0.0000,0.0000,0.0000,0.0000,0
2026-04-17,14:46:50,5826,1,-7.9840,0.0018,0.0118,0.3466,3.5249,0,1.0000,-998,1,6.2836,-0.7399,-1.1575,-17.2812,169.9711,0.000,0.000,1.000,0.0000,0.0000,0.0000,0.0000,0.0000,0.0000,0
2026-04-17,14:46:50,5861,1,-7.9840,0.0064,0.0105,0.3095,3.5249,0,1.0000,-998,1,6.3434,0.2967,-1.6673,-14.9865,169.9978,0.000,0.000,1.000,0.0000,0.0000,0.0000,0.0000,0.0000,0.0000,0
2026-04-17,14:46:50,5898,1,-7.9840,0.0018,0.0105,0.3080,3.5248,0,1.0000,-998,1,6.2957,-4.1885,-1.5661,-2.6750,169.9845,0.000,0.000,1.000,0.0000,0.0000,0.0000,0.0000,0.0000,0.0000,0
2026-04-17,14:46:51,5933,1,-7.9840,-0.0025,0.0113,0.3320,3.5248,0,1.0000,-998,1,6.1216,-6.9436,-1.4463,1.3765,170.0095,0.000,0.000,1.000,0.0000,0.0000,0.0000,0.0000,0.0000,0.0000,0
2026-04-17,14:46:51,5969,1,-7.9840,-0.0078,0.0096,0.2813,3.5248,0,1.0000,-998,1,5.8648,-9.2875,-0.9578,9.9573,169.9883,0.000,0.000,0.999,0.0000,0.0000,0.0000,0.0000,0.0000,0.0000,0
2026-04-17,14:46:51,6005,1,-7.9840,0.0140,0.0102,0.3001,3.5248,0,1.0000,-998,1,5.5599,-9.4916,-0.6616,9.0194,169.9949,0.000,0.000,1.000,0.0000,0.0000,0.0000,0.0000,0.0000,0.0000,0
2026-04-17,14:46:51,6040,1,-7.9840,-0.0139,0.0102,0.3013,3.5248,0,1.0000,-998,1,5.2776,-9.9095,-1.1614,-9.0297,169.9879,0.000,0.000,1.000,0.0000,0.0000,0.0000,0.0000,0.0000,0.0000,0
2026-04-17,14:46:51,6075,1,-7.9840,0.0025,0.0097,0.2839,3.5248,0,1.0000,-998,1,4.9274,-10.9890,-1.4477,-7.4645,169.9782,0.000,0.000,0.998,0.0000,0.0000,0.0000,0.0000,0.0000,0.0000,0
2026-04-17,14:46:51,6111,1,-7.9840,-0.0061,0.0095,0.2799,3.5248,0,1.0000,-998,1,4.7097,-6.8085,-1.7708,-9.9178,169.9685,0.000,0.000,0.994,0.0000,0.0000,0.0000,0.0000,0.0000,0.0000,0
2026-04-17,14:46:51,6146,1,-7.9840,0.0010,0.0097,0.2839,3.5248,0,1.0000,-998,1,4.4488,-9.0248,-2.0917,-10.0126,169.9721,0.000,0.000,0.991,0.0000,0.0000,0.0000,0.0000,0.0000,0.0000,0
2026-04-17,14:46:51,6181,1,-7.9840,0.0039,0.0085,0.2503,3.5248,0,1.0000,-998,1,4.2357,-6.4390,-2.9121,-19.9084,169.9718,0.000,0.000,0.988,0.0000,0.0000,0.0000,0.0000,0.0000,0.0000,0
2026-04-17,14:46:51,6217,1,-7.9840,-0.0073,0.0101,0.2974,3.5248,0,1.0000,-998,1,4.0286,-7.1037,-3.3125,-14.1863,169.9797,0.000,0.000,0.985,0.0000,0.0000,0.0000,0.0000,0.0000,0.0000,0
2026-04-17,14:46:51,6252,1,-7.9840,0.0022,0.0102,0.3014,3.5248,0,1.0000,-998,1,3.7968,-5.9956,-3.0376,2.0793,169.9784,0.000,0.000,0.982,0.0000,0.0000,0.0000,0.0000,0.0000,0.0000,0
2026-04-17,14:46:51,6287,1,-7.9840,0.0006,0.0107,0.3147,3.5248,0,1.0000,-998,1,3.4925,-9.3060,-2.2995,16.0324,169.9757,0.000,0.000,0.978,0.0000,0.0000,0.0000,0.0000,0.0000,0.0000,0
2026-04-17,14:46:51,6325,1,-7.9840,-0.0179,0.0117,0.3442,3.5249,0,1.0000,-998,1,2.6301,-17.5606,-2.1691,11.9969,169.9941,0.000,0.000,0.976,0.0000,0.0000,0.0000,0.0000,0.0000,0.0000,0
2026-04-17,14:46:51,6360,1,-7.9840,-0.0046,0.0110,0.3227,3.5249,0,1.0000,-998,1,1.9834,-15.3618,-2.2105,2.5938,170.0139,0.000,0.000,0.973,0.0000,0.0000,0.0000,0.0000,0.0000,0.0000,0
2026-04-17,14:46:51,6395,1,-7.9840,0.0125,0.0106,0.3117,3.5249,0,1.0000,-998,1,1.6890,-2.8428,-2.0042,6.7531,170.0181,0.000,0.000,0.970,0.0000,0.0000,0.0000,0.0000,0.0000,0.0000,0
2026-04-17,14:46:51,6431,1,-7.9840,0.0011,0.0131,0.3849,3.5249,0,1.0000,-998,1,2.3716,24.4900,-1.7582,7.0455,170.0192,0.000,0.000,0.966,0.0000,0.0000,0.0000,0.0000,0.0000,0.0000,0
2026-04-17,14:46:51,6467,1,-7.9840,-0.0120,0.0140,0.4108,3.5250,0,1.0000,-998,1,3.4057,30.0297,-1.5155,6.9526,170.0428,0.000,0.000,0.963,0.0000,0.0000,0.0000,0.0000,0.0000,0.0000,0
2026-04-17,14:46:51,6503,1,-7.9840,-0.0159,0.0126,0.3700,3.5250,0,1.0000,-998,1,4.2814,25.0651,-1.4540,3.3871,170.0302,0.000,0.000,0.960,0.0000,0.0000,0.0000,0.0000,0.0000,0.0000,0
2026-04-17,14:46:51,6538,1,-7.9840,-0.0057,0.0134,0.3935,3.5250,0,1.0000,-998,1,4.3478,2.6311,-1.3914,4.4175,170.0499,0.000,0.000,0.957,0.0000,0.0000,0.0000,0.0000,0.0000,0.0000,0
2026-04-17,14:46:51,6573,1,-7.9840,0.0094,0.0137,0.4018,3.5250,0,1.0000,-998,1,4.4014,4.7586,-1.3011,2.5079,170.0150,0.000,0.000,0.954,0.0000,0.0000,0.0000,0.0000,0.0000,0.0000,0
2026-04-17,14:46:51,6608,1,-7.9840,-0.0042,0.0146,0.4302,3.5250,0,1.0000,-998,1,4.5638,5.9777,-1.3289,0.7251,170.0467,0.000,0.000,0.950,0.0000,0.0000,0.0000,0.0000,0.0000,0.0000,0
2026-04-17,14:46:51,6644,1,-7.9840,-0.0268,0.0190,0.5594,3.5252,0,1.0000,-998,1,4.9765,13.5230,-1.3004,0.5539,170.0317,0.000,0.000,0.947,0.0000,0.0000,0.0000,0.0000,0.0000,0.0000,0
2026-04-17,14:46:51,6679,1,-7.9840,-0.1704,0.0249,0.7337,3.5261,0,1.0000,-998,1,4.9268,-2.0177,-1.2423,2.1425,170.0557,0.000,0.000,0.944,0.0000,0.0000,0.0000,0.0000,0.0000,0.0000,0
2026-04-17,14:46:51,6715,1,-7.9840,-0.3488,0.0257,0.7571,3.5283,0,1.0000,-998,1,4.8954,4.5623,-0.8221,9.1121,170.0217,0.000,0.000,0.941,0.0000,0.0000,0.0000,0.0000,0.0000,0.0000,0
2026-04-17,14:46:51,6750,1,-7.9840,-0.4402,0.0122,0.3593,3.5318,0,1.0000,-998,1,5.6317,23.6494,-1.3330,-8.8252,170.0723,0.000,0.000,0.938,0.0000,0.0000,0.0000,0.0000,0.0000,0.0000,0
2026-04-17,14:46:51,6786,1,-7.9840,-0.1942,0.0441,1.2971,3.5338,0,1.0000,-998,1,6.2099,13.0706,-1.8901,-15.1156,170.0074,0.000,0.000,0.943,0.0000,0.0000,0.0000,0.0000,0.0000,0.0000,0
2026-04-17,14:46:51,6821,1,-7.9840,-0.2741,0.0327,0.9618,3.5359,0,1.0000,-998,1,6.0436,-0.7043,-3.7411,-46.8174,170.0836,0.000,0.000,0.975,0.0000,0.0000,0.0000,0.0000,0.0000,0.0000,0
2026-04-17,14:46:51,6857,1,-7.9840,-0.5746,0.0314,0.9241,3.5398,0,1.0000,-998,1,6.0433,3.6056,-5.9683,-56.9826,170.0447,0.000,0.000,1.000,0.0000,0.0000,0.0000,0.0000,0.0000,0.0000,0
2026-04-17,14:46:51,6892,1,-7.9840,-0.2800,0.0424,1.2481,3.5436,0,1.0000,-998,1,6.6527,21.4104,-6.9975,-40.9686,170.0625,0.000,0.000,1.000,0.0000,0.0000,0.0000,0.0000,0.0000,0.0000,0
2026-04-17,14:46:52,6928,1,-7.9840,-0.4300,0.0433,1.2727,3.5463,0,1.0000,-998,1,6.7502,-2.0152,-6.8895,-9.2880,170.0439,0.000,0.000,1.000,0.0000,0.0000,0.0000,0.0000,0.0000,0.0000,0
2026-04-17,14:46:52,6963,1,-7.9840,-0.5838,0.0325,0.9564,3.5503,0,1.0000,-998,1,7.1062,18.1306,-6.1793,11.7596,170.0421,0.000,0.000,1.000,0.0000,0.0000,0.0000,0.0000,0.0000,0.0000,0
2026-04-17,14:46:52,6998,1,-7.9840,-0.6999,0.0229,0.6728,3.5560,0,1.0000,-998,1,7.4234,6.6001,-5.2402,20.1803,170.0862,0.000,0.000,1.000,0.0000,0.0000,0.0000,0.0000,0.0000,0.0000,0
2026-04-17,14:46:52,7034,1,-7.9840,-0.4566,0.0314,0.9242,3.5599,0,1.0000,-998,1,7.7167,9.8297,-4.7338,15.5115,170.0462,0.000,0.000,1.000,0.0000,0.0000,0.0000,0.0000,0.0000,0.0000,0
2026-04-17,14:46:52,7069,1,-7.9840,-0.6403,0.0426,1.2527,3.5643,0,1.0000,-998,1,7.6960,-2.4705,-5.0686,-0.0840,170.1348,0.000,0.000,1.000,0.0000,0.0000,0.0000,0.0000,0.0000,0.0000,0
2026-04-17,14:46:52,7104,1,-7.9840,-0.6116,0.0265,0.7785,3.5686,0,1.0000,-998,1,7.8432,1.2763,-4.9606,1.0224,170.1123,0.000,0.000,1.000,0.0000,0.0000,0.0000,0.0000,0.0000,0.0000,0
2026-04-17,14:46:52,7140,1,-7.9840,-0.4124,0.0090,0.2642,3.5724,0,1.0000,-998,1,7.9479,2.6518,-4.2922,11.1064,170.1731,0.000,0.000,0.999,0.0000,0.0000,0.0000,0.0000,0.0000,0.0000,0
2026-04-17,14:46:52,7176,1,-7.9840,-0.1846,0.0423,1.2455,3.5740,0,1.0000,-998,1,7.7943,-9.3902,-4.4218,2.3561,170.0939,0.000,0.000,1.000,0.0000,0.0000,0.0000,0.0000,0.0000,0.0000,0
2026-04-17,14:46:52,7211,1,-7.9840,-0.3349,0.0478,1.4072,3.5767,0,1.0000,-998,1,7.1753,-10.5447,-3.5975,19.8910,170.1136,0.032,0.000,1.000,0.0000,0.0000,0.0000,0.0000,0.0000,0.0000,0
2026-04-17,14:46:52,7247,1,-7.9840,-0.6687,0.0530,1.5581,3.5810,0,1.0000,-998,1,7.5375,9.9082,-2.7856,22.0870,170.0920,0.048,0.000,1.000,0.0000,0.0000,0.0000,0.0000,0.0000,0.0000,0
2026-04-17,14:46:52,7282,1,-7.9840,-0.6403,0.0266,0.7832,3.5862,0,1.0000,-998,1,8.0965,18.8126,-2.4655,11.1076,170.0760,0.016,0.000,1.000,0.0000,0.0000,0.0000,0.0000,0.0000,0.0000,0
2026-04-17,14:46:52,7319,1,-7.9840,-0.3097,0.0402,1.1835,3.5905,0,1.0000,-998,1,8.6538,12.8666,-2.4231,1.0113,170.0487,0.000,0.000,1.000,0.0000,0.0000,0.0000,0.0000,0.0000,0.0000,0
2026-04-17,14:46:52,7354,1,-7.9840,-0.5950,0.0417,1.2263,3.5944,0,1.0000,-998,1,7.6539,-27.8437,-3.2109,-13.5396,170.0770,0.000,0.000,1.000,0.0000,0.0000,0.0000,0.0000,0.0000,0.0000,0
2026-04-17,14:46:52,7389,1,-7.9840,-0.8080,0.0312,0.9188,3.5997,0,1.0000,-998,1,8.0834,16.5504,-4.3580,-29.8053,170.0482,0.016,0.000,1.000,0.0000,0.0000,0.0000,0.0000,0.0000,0.0000,0
2026-04-17,14:46:52,7425,1,-7.9840,-0.4439,0.0274,0.8072,3.6041,0,1.0000,-998,1,8.2516,-2.0401,-5.8928,-45.0365,170.1286,0.000,0.000,1.000,0.0000,0.0000,0.0000,0.0000,0.0000,0.0000,0
2026-04-17,14:46:52,7460,1,-7.9840,-0.2487,0.0477,1.4040,3.6060,0,1.0000,-998,1,8.0291,-7.1357,-6.6742,-27.8823,170.0225,0.000,0.000,1.000,0.0000,0.0000,0.0000,0.0000,0.0000,0.0000,0
2026-04-17,14:46:52,7495,1,-7.9840,-0.3202,0.0219,0.6450,3.6076,0,1.0000,-998,1,7.9060,-5.9507,-6.4695,-5.6056,170.0931,0.000,0.000,1.000,0.0000,0.0000,0.0000,0.0000,0.0000,0.0000,0
2026-04-17,14:46:52,7531,1,-7.9840,-0.4502,0.0338,0.9939,3.6109,0,1.0000,-998,1,7.9100,2.8972,-6.4274,1.0416,170.0310,0.000,0.000,1.000,0.0000,0.0000,0.0000,0.0000,0.0000,0.0000,0
2026-04-17,14:46:52,7566,1,-7.9840,-0.5441,0.0220,0.6471,3.6149,0,1.0000,-998,1,8.5437,16.7325,-5.6759,10.1645,170.0459,0.000,0.000,1.000,0.0000,0.0000,0.0000,0.0000,0.0000,0.0000,0
2026-04-17,14:46:52,7601,1,-7.9840,-0.1939,0.0208,0.6116,3.6174,0,1.0000,-998,1,9.0209,7.3182,-7.7202,-35.7735,170.0006,0.000,0.000,1.000,0.0000,0.0000,0.0000,0.0000,0.0000,0.0000,0
2026-04-17,14:46:52,7638,1,-7.9840,-0.2910,0.0223,0.6552,3.6201,0,1.0000,-998,1,7.7142,-34.9606,-8.5249,-29.9951,170.0481,0.000,0.000,1.000,0.0000,0.0000,0.0000,0.0000,0.0000,0.0000,0
2026-04-17,14:46:52,7673,1,-7.9840,-0.4035,0.0406,1.1949,3.6230,0,1.0000,-998,1,7.0366,-16.2833,-12.1738,-87.4833,170.0361,0.048,0.000,1.000,0.0000,0.0000,0.0000,0.0000,0.0000,0.0000,0
2026-04-17,14:46:52,7708,1,-7.9840,-0.4798,0.0230,0.6773,3.6263,0,1.0000,-998,1,6.6123,-11.2872,-14.5285,-78.0089,170.0848,0.064,0.000,1.000,0.0000,0.0000,0.0000,0.0000,0.0000,0.0000,0
2026-04-17,14:46:52,7744,1,-7.9840,-0.3829,0.0307,0.9027,3.6301,0,1.0000,-998,1,7.6413,30.1122,-17.1068,-72.4326,170.0065,0.080,0.000,1.000,0.0000,0.0000,0.0000,0.0000,0.0000,0.0000,0
2026-04-17,14:46:52,7780,1,-7.9840,-0.3516,0.0196,0.5765,3.6333,0,1.0000,-998,1,7.5219,-7.7417,-18.1387,-50.4267,170.0472,0.048,0.000,1.000,0.0000,0.0000,0.0000,0.0000,0.0000,0.0000,0
2026-04-17,14:46:52,7815,1,-7.9840,-0.3881,0.0387,1.1390,3.6360,0,1.0000,-998,1,6.9638,-14.3478,-21.1149,-73.3329,169.9923,0.040,0.000,1.000,0.0000,0.0000,0.0000,0.0000,0.0000,0.0000,0
2026-04-17,14:46:52,7851,1,-7.9840,-0.5513,0.0292,0.8585,3.6396,0,1.0000,-998,1,6.4030,-16.4763,-21.7310,-39.2272,170.0618,0.080,0.000,1.000,0.0000,0.0000,0.0000,0.0000,0.0000,0.0000,0
2026-04-17,14:46:52,7891,1,-7.9840,-0.6312,0.0408,1.1990,3.6451,0,1.0000,-998,1,6.7754,7.4112,-22.0399,-28.8529,170.0355,0.128,0.000,1.000,0.0000,0.0000,0.0000,0.0000,0.0000,0.0000,0
2026-04-17,14:46:53,7927,1,-7.9840,-0.6940,0.0288,0.8484,3.6502,0,1.0000,-998,1,7.0592,1.8095,-23.1675,-31.7434,170.0728,0.096,0.000,1.000,0.0000,0.0000,0.0000,0.0000,0.0000,0.0000,0
2026-04-17,14:46:53,7963,1,-7.9840,-0.6223,0.0441,1.2971,3.6543,0,1.0000,-998,1,6.9829,-6.9682,-25.3456,-54.9003,170.0047,0.064,0.000,1.000,0.0000,0.0000,0.0000,0.0000,0.0000,0.0000,0
2026-04-17,14:46:53,7999,1,-7.9840,-0.8919,0.0469,1.3796,3.6597,0,1.0000,-998,1,6.3385,-18.3275,-26.8336,-52.5100,170.1144,0.080,0.000,1.000,0.0000,0.0000,0.0000,0.0000,0.0000,0.0000,0
2026-04-17,14:46:53,8035,1,-7.9840,-0.6402,0.0492,1.4483,3.6651,0,1.0000,-998,1,6.5864,9.1964,-28.2858,-49.5207,170.0332,0.072,0.000,1.000,0.0000,0.0000,0.0000,0.0000,0.0000,0.0000,0
2026-04-17,14:46:53,8070,1,-7.9840,-0.3985,0.0516,1.5164,3.6678,0,1.0000,-998,1,6.3897,-15.0894,-28.6591,-21.4172,170.0981,0.040,0.000,1.000,0.0000,0.0000,0.0000,0.0000,0.0000,0.0000,0
2026-04-17,14:46:53,8105,1,-7.9840,-0.6775,0.0573,1.6861,3.6717,0,1.0000,-998,1,6.0115,-2.1485,-28.8153,-11.8201,170.0960,0.104,0.000,1.000,0.0000,0.0000,0.0000,0.0000,0.0000,0.0000,0
2026-04-17,14:46:53,8140,1,-7.9840,-0.7601,0.0418,1.2280,3.6769,0,1.0000,-998,1,6.5992,9.0259,-27.7561,17.0155,170.1364,0.072,0.000,1.000,0.0000,0.0000,0.0000,0.0000,0.0000,0.0000,0
2026-04-17,14:46:53,8176,1,-7.9840,-0.5846,0.0681,2.0022,3.6825,0,1.0000,-998,1,6.6627,9.5509,-27.0000,18.6657,170.1112,0.040,0.000,1.000,0.0000,0.0000,0.0000,0.0000,0.0000,0.0000,0
2026-04-17,14:46:53,8211,1,-7.9840,-0.5438,0.0588,1.7292,3.6852,0,1.0000,-998,1,6.6979,-12.9170,-27.2406,3.7817,170.0549,0.008,0.000,1.000,0.0000,0.0000,0.0000,0.0000,0.0000,0.0000,0
2026-04-17,14:46:53,8247,1,-7.9840,-0.7674,0.0620,1.8242,3.6900,0,1.0000,-998,1,5.8794,-11.7439,-26.7524,9.9598,170.1333,0.048,0.000,1.000,0.0000,0.0000,0.0000,0.0000,0.0000,0.0000,0
2026-04-17,14:46:53,8283,1,-7.9840,-0.8350,0.0329,0.9683,3.6952,0,1.0000,-998,1,6.6310,11.4575,-26.0645,19.5137,170.0412,0.040,0.000,1.000,0.0000,0.0000,0.0000,0.0000,0.0000,0.0000,0
2026-04-17,14:46:53,8318,1,-7.9840,-0.9406,0.0458,1.3481,3.7013,0,1.0000,-998,1,6.3103,-3.6050,-24.5777,40.5177,170.1853,0.008,0.000,1.000,0.0000,0.0000,0.0000,0.0000,0.0000,0.0000,0
2026-04-17,14:46:53,8354,1,-7.9840,-1.0299,0.0347,1.0220,3.7091,0,1.0000,-998,1,7.1658,23.9998,-23.4216,36.4834,170.0096,0.000,0.000,1.000,0.0000,0.0000,0.0000,0.0000,0.0000,0.0000,0
2026-04-17,14:46:53,8389,1,-7.9840,-0.1089,0.0440,1.2952,3.7139,0,1.0000,-998,1,7.0853,0.6337,-21.6681,48.9282,170.1338,0.000,0.000,1.000,0.0000,0.0000,0.0000,0.0000,0.0000,0.0000,0
2026-04-17,14:46:53,8424,1,-7.9840,-0.4825,0.0527,1.5508,3.7167,0,1.0000,-998,1,6.0900,-32.9543,-20.2660,46.0603,169.9913,0.016,0.000,1.000,0.0000,0.0000,0.0000,0.0000,0.0000,0.0000,0
2026-04-17,14:46:53,8459,1,-7.9840,-0.6975,0.0533,1.5665,3.7213,0,1.0000,-998,1,6.3936,15.4624,-19.2115,37.0999,170.1208,0.056,0.000,1.000,0.0000,0.0000,0.0000,0.0000,0.0000,0.0000,0
2026-04-17,14:46:53,8494,1,-7.9840,-0.8578,0.0325,0.9567,3.7267,0,1.0000,-998,1,6.5230,-2.7108,-17.4130,49.5106,169.9836,0.024,0.000,1.000,0.0000,0.0000,0.0000,0.0000,0.0000,0.0000,0
2026-04-17,14:46:53,8529,1,-7.9840,-0.9412,0.0460,1.3530,3.7333,0,1.0000,-998,1,7.0954,18.1782,-16.2446,37.3000,170.1056,0.000,0.000,1.000,0.0000,0.0000,0.0000,0.0000,0.0000,0.0000,0
2026-04-17,14:46:53,8565,1,-7.9840,-0.9379,0.0273,0.8035,3.7410,0,1.0000,-998,1,6.8790,-9.8606,-15.2361,36.2796,170.0434,0.000,0.000,1.000,0.0000,0.0000,0.0000,0.0000,0.0000,0.0000,0
2026-04-17,14:46:53,8600,1,-7.9840,-0.6569,0.0499,1.4670,3.7470,0,1.0000,-998,1,6.6686,-3.0364,-14.0812,34.3908,170.0241,0.000,0.000,1.000,0.0000,0.0000,0.0000,0.0000,0.0000,0.0000,0
2026-04-17,14:46:53,8635,1,-7.9840,-0.8996,0.0554,1.6283,3.7536,0,1.0000,-998,1,6.1690,-11.1614,-12.9674,34.7618,170.0266,0.032,0.000,1.000,0.0000,0.0000,0.0000,0.0000,0.0000,0.0000,0
2026-04-17,14:46:53,8674,1,-7.9840,-1.2546,0.0637,1.8745,3.7615,0,1.0000,-998,1,6.3236,-2.1126,-12.4172,28.3947,170.0600,0.080,0.000,1.000,0.0000,0.0000,0.0000,0.0000,0.0000,0.0000,0
2026-04-17,14:46:53,8709,1,-7.9840,-1.1575,0.0386,1.1360,3.7715,0,1.0000,-998,1,6.9877,21.0537,-10.6499,45.3561,170.0309,0.048,0.000,1.000,0.0000,0.0000,0.0000,0.0000,0.0000,0.0000,0
2026-04-17,14:46:53,8744,1,-7.9840,-0.8892,0.0585,1.7217,3.7797,0,1.0000,-998,1,7.2051,7.7867,-10.3327,17.8054,170.0673,0.016,0.000,1.000,0.0000,0.0000,0.0000,0.0000,0.0000,0.0000,0
2026-04-17,14:46:53,8780,1,-7.9840,-0.9195,0.0318,0.9365,3.7868,0,1.0000,-998,1,6.7338,-13.9102,-10.5737,2.6824,170.0605,0.000,0.000,1.000,0.0000,0.0000,0.0000,0.0000,0.0000,0.0000,0
2026-04-17,14:46:53,8816,1,-7.9840,-0.9452,0.0628,1.8471,3.7945,0,1.0000,-998,1,6.7138,5.4519,-11.6790,-19.5493,170.0398,0.000,0.000,1.000,0.0000,0.0000,0.0000,0.0000,0.0000,0.0000,0
2026-04-17,14:46:53,8852,1,-7.9840,-1.0464,0.0555,1.6326,3.8024,0,1.0000,-998,1,6.6202,-6.1065,-10.5442,17.9228,170.0870,0.000,0.000,1.000,0.0000,0.0000,0.0000,0.0000,0.0000,0.0000,0
2026-04-17,14:46:53,8888,1,-7.9840,-1.3820,0.0617,1.8139,3.8124,0,1.0000,-998,1,6.6716,5.9506,-10.9688,-5.8792,170.1207,0.000,0.000,1.000,0.0000,0.0000,0.0000,0.0000,0.0000,0.0000,0
2026-04-17,14:46:54,8923,1,-7.9840,-1.3996,0.0663,1.9493,3.8226,0,1.0000,-998,1,7.0000,3.0216,-11.3981,-10.5789,170.1822,0.000,0.000,1.000,0.0000,0.0000,0.0000,0.0000,0.0000,0.0000,0
2026-04-17,14:46:54,8958,1,-7.9840,-1.0097,0.0687,2.0210,3.8303,0,1.0000,-998,1,6.9112,-3.2668,-11.3766,-1.2923,170.1061,0.000,0.000,1.000,0.0000,0.0000,0.0000,0.0000,0.0000,0.0000,0
2026-04-17,14:46:54,8994,1,-7.9840,-1.3464,0.0650,1.9110,3.8389,0,1.0000,-998,1,6.3325,-12.2804,-11.3097,-1.8726,170.1261,0.032,0.000,1.000,0.0000,0.0000,0.0000,0.0000,0.0000,0.0000,0
2026-04-17,14:46:54,9030,1,-7.9840,-1.3395,0.0412,1.2113,3.8493,0,1.0000,-998,1,6.9596,19.5733,-11.4199,-1.3812,170.0866,0.024,0.000,1.000,0.0000,0.0000,0.0000,0.0000,0.0000,0.0000,0
2026-04-17,14:46:54,9066,1,-7.9840,-1.2643,0.0606,1.7829,3.8599,0,1.0000,-998,1,7.1645,4.5860,-11.2244,1.9225,170.1181,0.000,0.000,1.000,0.0000,0.0000,0.0000,0.0000,0.0000,0.0000,0
2026-04-17,14:46:54,9102,1,-7.9840,-1.3752,0.0600,1.7646,3.8702,0,1.0000,-998,1,6.8701,-11.4030,-12.8923,-36.5623,170.1168,0.000,0.000,1.000,0.0000,0.0000,0.0000,0.0000,0.0000,0.0000,0
2026-04-17,14:46:54,9138,1,-7.9840,-1.3304,0.0386,1.1364,3.8802,0,1.0000,-998,1,6.8716,-1.0937,-15.5129,-66.7567,170.1724,0.000,0.000,1.000,0.0000,0.0000,0.0000,0.0000,0.0000,0.0000,0
2026-04-17,14:46:54,9174,1,-7.9840,-1.1775,0.0669,1.9682,3.8896,0,1.0000,-998,1,6.7901,-3.2077,-17.3920,-59.2589,170.1571,0.000,0.000,1.000,0.0000,0.0000,0.0000,0.0000,0.0000,0.0000,0
2026-04-17,14:46:54,9209,1,-7.9840,-1.4270,0.0591,1.7392,3.8991,0,1.0000,-998,1,6.5959,-8.1833,-19.0604,-56.6719,170.1715,0.000,0.000,1.000,0.0000,0.0000,0.0000,0.0000,0.0000,0.0000,0
2026-04-17,14:46:54,9245,1,-7.9840,-1.4175,0.0279,0.8204,3.9103,0,1.0000,-998,1,6.6694,9.4682,-20.3279,-45.3478,170.1089,0.000,0.000,1.000,0.0000,0.0000,0.0000,0.0000,0.0000,0.0000,0
2026-04-17,14:46:54,9280,1,-7.9840,-0.7985,0.0759,2.2321,3.9175,0,1.0000,-998,1,7.4107,10.9593,-20.6471,-20.3974,170.1415,0.000,0.000,1.000,0.0000,0.0000,0.0000,0.0000,0.0000,0.0000,0
2026-04-17,14:46:54,9316,1,-7.9840,-0.7554,0.0633,1.8628,3.9240,0,1.0000,-998,1,6.1156,-25.2903,-19.7918,12.4301,170.1507,0.032,0.000,1.000,0.0000,0.0000,0.0000,0.0000,0.0000,0.0000,0
2026-04-17,14:46:54,9352,1,-7.9840,-1.2626,0.0806,2.3693,3.9329,0,1.0000,-998,1,6.4549,10.6576,-18.3735,31.8242,170.0022,0.072,0.000,1.000,0.0000,0.0000,0.0000,0.0000,0.0000,0.0000,0
2026-04-17,14:46:54,9388,1,-7.9840,-1.3723,0.0620,1.8241,3.9428,0,1.0000,-998,1,6.3348,-7.8972,-16.6773,45.9273,169.9637,0.040,0.000,1.000,0.0000,0.0000,0.0000,0.0000,0.0000,0.0000,0
2026-04-17,14:46:54,9424,1,-7.9840,-1.4616,0.0491,1.4455,3.9548,0,1.0000,-998,1,6.7359,22.8742,-14.1230,69.5216,169.9448,0.008,0.000,1.000,0.0000,0.0000,0.0000,0.0000,0.0000,0.0000,0
2026-04-17,14:46:54,9458,1,-7.9840,-1.4971,0.0545,1.6039,3.9621,0,1.0000,-998,1,7.0156,16.7388,-13.4759,58.4482,169.9748,0.000,0.000,1.000,0.0000,0.0000,0.0000,0.0000,0.0000,0.0000,0
2026-04-17,14:46:54,9493,1,-7.9840,-1.3940,0.0591,1.7392,3.9740,0,1.0000,-998,1,6.1264,-33.6220,-11.2481,65.8116,170.0188,0.000,0.000,1.000,0.0000,0.0000,0.0000,0.0000,0.0000,0.0000,0
2026-04-17,14:46:54,9528,1,-7.9840,-1.4350,0.0562,1.6544,3.9850,0,1.0000,-998,1,6.2327,17.8200,-9.4554,58.4613,169.9599,0.064,0.000,1.000,0.0000,0.0000,0.0000,0.0000,0.0000,0.0000,0
2026-04-17,14:46:54,9563,1,-7.9840,-1.4047,0.0502,1.4753,3.9965,0,1.0000,-998,1,6.4438,-3.1270,-8.3400,42.7228,169.9066,0.032,0.000,1.000,0.0000,0.0000,0.0000,0.0000,0.0000,0.0000,0
2026-04-17,14:46:54,9599,1,-7.9840,-1.4275,0.0687,2.0196,4.0077,0,1.0000,-998,1,6.4495,2.5671,-7.1224,41.1089,169.9816,0.000,0.000,1.000,0.0000,0.0000,0.0000,0.0000,0.0000,0.0000,0
2026-04-17,14:46:54,9634,1,-7.9840,-1.4682,0.0577,1.6958,4.0183,0,1.0000,-998,1,6.3232,-9.9751,-5.9090,35.4994,169.9931,0.000,0.000,1.000,0.0000,0.0000,0.0000,0.0000,0.0000,0.0000,0
2026-04-17,14:46:54,9669,1,-7.9840,-1.6549,0.0516,1.5177,4.0310,0,1.0000,-998,1,5.7125,-5.0556,-6.1178,6.6960,169.9530,0.048,0.000,1.000,0.0000,0.0000,0.0000,0.0000,0.0000,0.0000,0
2026-04-17,14:46:54,9706,1,-7.9840,-1.3670,0.0728,2.1401,4.0439,0,1.0000,-998,1,6.7219,28.1907,-6.1704,0.7457,169.9170,0.040,0.000,1.000,0.0000,0.0000,0.0000,0.0000,0.0000,0.0000,0
2026-04-17,14:46:54,9741,1,-7.9840,-1.6957,0.0706,2.0776,4.0549,0,1.0000,-998,1,6.1053,-29.1081,-6.7656,-14.2802,170.0389,0.008,0.000,1.000,0.0000,0.0000,0.0000,0.0000,0.0000,0.0000,0
2026-04-17,14:46:54,9777,1,-7.9840,-1.8671,0.0663,1.9490,4.0678,0,1.0000,-998,1,6.0687,6.7975,-8.4556,-40.7790,169.9420,0.024,0.000,1.000,0.0000,0.0000,0.0000,0.0000,0.0000,0.0000,0
2026-04-17,14:46:54,9813,1,-7.9840,-1.9781,0.0577,1.6973,4.0828,0,1.0000,-998,1,6.2848,2.0015,-10.3783,-55.1241,169.9198,0.000,0.000,1.000,0.0000,0.0000,0.0000,0.0000,0.0000,0.0000,0
2026-04-17,14:46:54,9848,1,-7.9840,-1.6910,0.0633,1.8607,4.0953,0,1.0000,-998,1,6.5499,3.8699,-12.7694,-67.1676,169.9550,0.000,0.000,1.000,0.0000,0.0000,0.0000,0.0000,0.0000,0.0000,0
2026-04-17,14:46:54,9884,1,-7.9840,-1.8079,0.0585,1.7213,4.1094,0,1.0000,-998,1,6.0754,-3.6266,-14.8080,-68.8383,169.9879,0.000,0.000,1.000,0.0000,0.0000,0.0000,0.0000,0.0000,0.0000,0
2026-04-17,14:46:55,9919,1,-7.9840,-1.8916,0.0617,1.8142,4.1248,0,1.0000,-998,1,6.4963,8.7186,-16.4045,-54.8426,169.9261,0.000,0.000,1.000,0.0000,0.0000,0.0000,0.0000,0.0000,0.0000,0
2026-04-17,14:46:55,9954,1,-7.9840,-2.0279,0.0703,2.0689,4.1407,0,1.0000,-998,1,6.0797,-5.8796,-16.7391,-21.3439,169.9458,0.000,0.000,1.000,0.0000,0.0000,0.0000,0.0000,0.0000,0.0000,0
2026-04-17,14:46:55,9990,1,-7.9840,-2.2925,0.0682,2.0045,4.1579,0,1.0000,-998,1,6.2282,0.3360,-16.3815,3.3685,169.8931,0.000,0.000,1.000,0.0000,0.0000,0.0000,0.0000,0.0000,0.0000,0
2026-04-17,14:46:55,10025,1,-7.9840,-2.3993,0.0750,2.2072,4.1763,0,1.0000,-998,1,6.4095,8.9275,-15.7127,13.3961,169.9084,0.000,0.000,1.000,0.0000,0.0000,0.0000,0.0000,0.0000,0.0000,0
2026-04-17,14:46:55,10060,1,-7.9840,-2.5563,0.0949,2.7917,4.1951,0,1.0000,-998,1,6.2511,-6.6795,-13.5946,52.0526,169.8446,0.000,0.000,1.000,0.0000,0.0000,0.0000,0.0000,0.0000,0.0000,0
2026-04-17,14:46:55,10096,1,-7.9840,-2.5425,0.0919,2.7019,4.2138,0,1.0000,-998,1,6.3303,-3.7437,-11.3683,60.4751,169.8799,0.000,0.000,1.000,0.0000,0.0000,0.0000,0.0000,0.0000,0.0000,0
2026-04-17,14:46:55,10131,1,-7.9840,-2.6288,0.0752,2.2104,4.2336,0,1.0000,-998,1,6.0832,-2.1301,-9.0009,73.3549,169.7637,0.000,0.000,1.000,0.0000,0.0000,0.0000,0.0000,0.0000,0.0000,0
2026-04-17,14:46:55,10166,1,-7.9840,-2.8181,0.0893,2.6276,4.2542,0,1.0000,-998,1,6.5453,5.5933,-5.5915,98.7982,169.6188,0.000,0.000,1.000,0.0000,0.0000,0.0000,0.0000,0.0000,0.0000,0
2026-04-17,14:46:55,10202,1,-7.9840,-2.8930,0.0794,2.3367,4.2764,0,1.0000,-998,1,5.9539,-12.4006,-2.2075,99.6258,169.6517,0.000,0.000,1.000,0.0000,0.0000,0.0000,0.0000,0.0000,0.0000,0
2026-04-17,14:46:55,10242,1,-7.9840,-2.8842,0.0902,2.6539,4.3013,0,1.0000,-998,1,6.2092,0.6523,-1.3892,70.0909,169.7573,0.000,0.000,1.000,0.0000,0.0000,0.0000,0.0000,0.0000,0.0000,0
2026-04-17,14:46:55,10278,1,-7.9840,-2.8689,0.0964,2.8355,4.3233,0,1.0000,-998,1,5.6244,-11.9470,-1.2058,27.5157,169.8138,0.048,0.000,1.000,0.0000,0.0000,0.0000,0.0000,0.0000,0.0000,0
2026-04-17,14:46:55,10315,1,-7.9840,-3.0198,0.0938,2.7587,4.3457,0,1.0000,-998,1,6.0165,-0.3558,-0.8434,18.5747,169.7648,0.040,0.000,1.000,0.0000,0.0000,0.0000,0.0000,0.0000,0.0000,0
2026-04-17,14:46:55,10350,1,-7.9840,-3.0338,0.0836,2.4592,4.3690,0,1.0000,-998,1,5.8881,8.4027,-0.2109,18.5985,169.7181,0.008,0.000,1.000,0.0000,0.0000,0.0000,0.0000,0.0000,0.0000,0
2026-04-17,14:46:55,10386,1,-7.9840,-2.9682,0.0953,2.8034,4.3917,0,1.0000,-998,1,6.3083,2.2885,-0.5261,-3.8984,169.6694,0.000,0.000,1.000,0.0000,0.0000,0.0000,0.0000,0.0000,0.0000,0
2026-04-17,14:46:55,10421,1,-7.9840,-3.1888,0.0953,2.8032,4.4150,0,1.0000,-998,1,5.8270,-9.7812,-1.7008,-27.3941,169.8202,0.000,0.000,1.000,0.0000,0.0000,0.0000,0.0000,0.0000,0.0000,0
2026-04-17,14:46:55,10456,1,-7.9840,-3.1287,0.1036,3.0472,4.4384,0,1.0000,-998,1,6.4498,22.8960,-2.8966,-28.2047,169.7886,0.000,0.000,1.000,0.0000,0.0000,0.0000,0.0000,0.0000,0.0000,0
2026-04-17,14:46:55,10491,1,-7.9840,-2.9782,0.0898,2.6412,4.4603,0,1.0000,-998,1,6.0517,-24.1569,-2.1961,4.7548,169.8284,0.000,0.000,1.000,0.0000,0.0000,0.0000,0.0000,0.0000,0.0000,0
2026-04-17,14:46:55,10527,1,-7.9840,-3.1572,0.0879,2.5841,4.4844,0,1.0000,-998,1,6.3307,19.2831,-1.7953,5.4935,169.7749,0.000,0.000,1.000,0.0000,0.0000,0.0000,0.0000,0.0000,0.0000,0
2026-04-17,14:46:55,10562,1,-7.9840,-3.0092,0.0903,2.6567,4.5075,0,1.0000,-998,1,6.4659,-4.6691,-4.2622,-55.3810,169.8917,0.000,0.000,1.000,0.0000,0.0000,0.0000,0.0000,0.0000,0.0000,0
2026-04-17,14:46:55,10598,1,-7.9840,-3.0600,0.1016,2.9886,4.5304,0,1.0000,-998,1,6.4008,3.2234,-6.9634,-67.8613,169.7743,0.000,0.000,1.000,0.0000,0.0000,0.0000,0.0000,0.0000,0.0000,0
2026-04-17,14:46:55,10633,1,-7.9840,-3.1298,0.0871,2.5626,4.5543,0,1.0000,-998,1,6.2495,-12.7922,-7.8870,-42.4719,169.8354,0.000,0.000,1.000,0.0000,0.0000,0.0000,0.0000,0.0000,0.0000,0
2026-04-17,14:46:55,10668,1,-7.9840,-3.2152,0.0895,2.6337,4.5782,0,1.0000,-998,1,6.3992,10.7588,-9.2254,-43.5400,169.8609,0.000,0.000,1.000,0.0000,0.0000,0.0000,0.0000,0.0000,0.0000,0
2026-04-17,14:46:55,10705,1,-7.9840,-3.1952,0.0897,2.6369,4.6029,0,1.0000,-998,1,6.3799,-6.1905,-9.1285,-9.9917,169.8103,0.000,0.000,1.000,0.0000,0.0000,0.0000,0.0000,0.0000,0.0000,0
2026-04-17,14:46:55,10740,1,-7.9840,-3.2713,0.0956,2.8128,4.6277,0,1.0000,-998,1,6.3579,0.9878,-9.0498,-5.2100,169.8239,0.000,0.000,1.000,0.0000,0.0000,0.0000,0.0000,0.0000,0.0000,0
2026-04-17,14:46:55,10775,1,-7.9840,-3.3783,0.1027,3.0219,4.6526,0,1.0000,-998,1,6.3954,2.2852,-8.5782,10.8860,169.8577,0.000,0.000,1.000,0.0000,0.0000,0.0000,0.0000,0.0000,0.0000,0
2026-04-17,14:46:55,10811,1,-7.9840,-3.2381,0.0959,2.8206,4.6770,0,1.0000,-998,1,6.3727,-5.5066,-8.3620,7.7508,169.8370,0.000,0.000,1.000,0.0000,0.0000,0.0000,0.0000,0.0000,0.0000,0
2026-04-17,14:46:55,10847,1,-7.9840,-3.4369,0.0887,2.6088,4.7032,0,1.0000,-998,1,6.2838,2.0497,-7.0449,28.6928,169.8712,0.000,0.000,1.000,0.0000,0.0000,0.0000,0.0000,0.0000,0.0000,0
2026-04-17,14:46:55,10882,1,-7.9840,-3.2774,0.1083,3.1865,4.7274,0,1.0000,-998,1,6.7107,1.0247,-7.9058,-12.6727,169.9275,0.000,0.000,1.000,0.0000,0.0000,0.0000,0.0000,0.0000,0.0000,0
2026-04-17,14:46:56,10918,1,-7.9840,-3.4322,0.1094,3.2168,4.7533,0,1.0000,-998,1,5.9636,-14.0503,-9.1140,-28.8251,169.9521,0.016,0.000,1.000,0.0000,0.0000,0.0000,0.0000,0.0000,0.0000,0
2026-04-17,14:46:56,10954,1,-7.9840,-3.6554,0.1001,2.9437,4.7810,0,1.0000,-998,1,6.3733,6.3857,-9.9128,-24.2651,169.9253,0.000,0.000,1.000,0.0000,0.0000,0.0000,0.0000,0.0000,0.0000,0
2026-04-17,14:46:56,10989,1,-7.9840,-3.3522,0.1182,3.4763,4.8073,0,1.0000,-998,1,6.6358,14.0719,-10.4711,-19.2729,169.9193,0.000,0.000,1.000,0.0000,0.0000,0.0000,0.0000,0.0000,0.0000,0
2026-04-17,14:46:56,11026,1,-7.9840,-3.2809,0.0910,2.6776,4.8315,0,1.0000,-998,1,6.4671,3.2531,-10.5246,-13.6280,169.9386,0.000,0.000,1.000,0.0000,0.0000,0.0000,0.0000,0.0000,0.0000,0
2026-04-17,14:46:56,11061,1,-7.9840,-3.3234,0.0975,2.8662,4.8589,0,1.0000,-998,1,6.8466,19.5311,-10.2683,-0.3228,169.9181,0.000,0.000,1.000,0.0000,0.0000,0.0000,0.0000,0.0000,0.0000,0
2026-04-17,14:46:56,11096,1,-7.9840,-3.4446,0.1001,2.9434,4.8848,0,1.0000,-998,1,6.4344,-9.2749,-9.1843,24.4274,169.8821,0.000,0.000,1.000,0.0000,0.0000,0.0000,0.0000,0.0000,0.0000,0
2026-04-17,14:46:56,11132,1,-7.9840,-3.2198,0.0931,2.7376,4.9098,0,1.0000,-998,1,6.6838,2.9248,-8.8861,10.8931,169.8983,0.000,0.000,1.000,0.0000,0.0000,0.0000,0.0000,0.0000,0.0000,0
2026-04-17,14:46:56,11167,1,-7.9840,-3.4293,0.0964,2.8354,4.9354,0,1.0000,-998,1,6.4250,-5.4811,-8.6230,8.7405,169.8949,0.000,0.000,0.999,0.0000,0.0000,0.0000,0.0000,0.0000,0.0000,0
2026-04-17,14:46:56,11203,1,-7.9840,-3.3410,0.1183,3.4798,4.9615,0,1.0000,-998,1,6.8514,14.6824,-10.3494,-31.1308,169.8524,0.000,0.000,0.996,0.0000,0.0000,0.0000,0.0000,0.0000,0.0000,0
2026-04-17,14:46:56,11239,1,-7.9840,-3.2026,0.1041,3.0610,4.9855,0,1.0000,-998,1,6.3340,-23.9895,-11.7192,-39.9943,169.7935,0.000,0.000,1.000,0.0000,0.0000,0.0000,0.0000,0.0000,0.0000,0
2026-04-17,14:46:56,11274,1,-7.9840,-3.4289,0.0947,2.7864,5.0107,0,1.0000,-998,1,6.3365,8.9004,-12.4760,-25.1309,169.8036,0.040,0.000,1.000,0.0000,0.0000,0.0000,0.0000,0.0000,0.0000,0
2026-04-17,14:46:56,11309,1,-7.9840,-3.3533,0.0749,2.2021,5.0359,0,1.0000,-998,1,6.7409,10.1893,-12.4331,-9.1303,169.8089,0.008,0.000,1.000,0.0000,0.0000,0.0000,0.0000,0.0000,0.0000,0
2026-04-17,14:46:56,11345,1,-7.9840,-2.8062,0.1131,3.3255,5.0576,0,1.0000,-998,1,6.7679,-9.7808,-10.6640,37.1319,169.6536,0.000,0.000,1.000,0.0000,0.0000,0.0000,0.0000,0.0000,0.0000,0
2026-04-17,14:46:56,11381,1,-7.9840,-3.0968,0.1186,3.4891,5.0798,0,1.0000,-998,1,6.1988,-8.6358,-7.9377,68.9206,169.6944,0.000,0.000,1.000,0.0000,0.0000,0.0000,0.0000,0.0000,0.0000,0
2026-04-17,14:46:56,11417,1,-7.9840,-3.0703,0.0958,2.8172,5.1030,0,1.0000,-998,1,6.3755,1.5100,-4.7107,86.0489,169.7008,0.000,0.000,1.000,0.0000,0.0000,0.0000,0.0000,0.0000,0.0000,0
2026-04-17,14:46:56,11452,1,-7.9840,-3.2970,0.0876,2.5775,5.1283,0,1.0000,-998,1,6.5876,12.7467,-3.4339,47.1387,169.7514,0.000,0.000,1.000,0.0000,0.0000,0.0000,0.0000,0.0000,0.0000,0
2026-04-17,14:46:56,11488,1,-7.9840,-3.0055,0.0934,2.7457,5.1511,0,1.0000,-998,1,7.1024,1.7076,-4.7137,-11.0445,169.7449,0.000,0.000,1.000,0.0000,0.0000,0.0000,0.0000,0.0000,0.0000,0
2026-04-17,14:46:56,11524,1,-7.9840,-3.1812,0.1148,3.3779,5.1754,0,1.0000,-998,1,6.2664,-13.5064,-5.1704,-12.3065,169.7809,0.000,0.000,1.000,0.0000,0.0000,0.0000,0.0000,0.0000,0.0000,0
2026-04-17,14:46:56,11559,1,-7.9840,-3.0450,0.0800,2.3521,5.1978,0,1.0000,-998,1,6.9382,9.4624,-6.1565,-26.9383,169.7525,0.000,0.000,1.000,0.0000,0.0000,0.0000,0.0000,0.0000,0.0000,0
2026-04-17,14:46:56,11594,1,-7.9840,-2.9772,0.0925,2.7220,5.2201,0,1.0000,-998,1,6.4452,-6.9399,-8.3168,-54.2462,169.9215,0.000,0.000,1.000,0.0000,0.0000,0.0000,0.0000,0.0000,0.0000,0
2026-04-17,14:46:56,11630,1,-7.9840,-3.0172,0.0755,2.2212,5.2429,0,1.0000,-998,1,6.7470,9.0901,-9.6264,-41.9160,169.8412,0.000,0.000,1.000,0.0000,0.0000,0.0000,0.0000,0.0000,0.0000,0
2026-04-17,14:46:56,11666,1,-7.9840,-2.9692,0.1149,3.3800,5.2661,0,1.0000,-998,1,7.0574,4.6067,-8.9350,4.2112,169.8883,0.000,0.000,1.000,0.0000,0.0000,0.0000,0.0000,0.0000,0.0000,0
2026-04-17,14:46:56,11701,1,-7.9840,-3.0366,0.1179,3.4680,5.2887,0,1.0000,-998,1,6.2420,-19.6702,-6.6314,50.3440,169.8936,0.016,0.000,1.000,0.0000,0.0000,0.0000,0.0000,0.0000,0.0000,0
2026-04-17,14:46:56,11737,1,-7.9840,-3.1446,0.1146,3.3695,5.3128,0,1.0000,-998,1,5.9678,0.6214,-4.8925,47.6124,169.8242,0.080,0.000,1.000,0.0000,0.0000,0.0000,0.0000,0.0000,0.0000,0
2026-04-17,14:46:56,11772,1,-7.9840,-3.3159,0.0812,2.3872,5.3372,0,1.0000,-998,1,6.4887,9.0225,-4.9424,15.0937,169.8025,0.072,0.000,1.000,0.0000,0.0000,0.0000,0.0000,0.0000,0.0000,0
2026-04-17,14:46:56,11812,1,-7.9840,-2.8764,0.0864,2.5408,5.3627,0,1.0000,-998,1,7.1455,15.2044,-4.9691,6.1204,169.6907,0.048,0.000,1.000,0.0000,0.0000,0.0000,0.0000,0.0000,0.0000,0
2026-04-17,14:46:56,11847,1,-7.9840,-3.2541,0.0942,2.7705,5.3860,0,1.0000,-998,1,6.0477,-36.7946,-6.6346,-36.4100,169.7625,0.040,0.000,1.000,0.0000,0.0000,0.0000,0.0000,0.0000,0.0000,0
2026-04-17,14:46:56,11882,1,-7.9840,-3.0711,0.0923,2.7153,5.4094,0,1.0000,-998,1,6.7097,24.3700,-9.7221,-74.8477,169.7196,0.080,0.000,1.000,0.0000,0.0000,0.0000,0.0000,0.0000,0.0000,0
2026-04-17,14:46:57,11917,1,-7.9840,-3.1154,0.0953,2.8040,5.4321,0,1.0000,-998,1,6.1360,-24.8200,-10.2613,-33.0156,169.7711,0.048,0.000,1.000,0.0000,0.0000,0.0000,0.0000,0.0000,0.0000,0
2026-04-17,14:46:57,11953,1,-7.9840,-3.2645,0.0895,2.6320,5.4571,0,1.0000,-998,1,6.2137,9.7939,-9.6364,0.8704,169.8036,0.088,0.000,1.000,0.0000,0.0000,0.0000,0.0000,0.0000,0.0000,0
2026-04-17,14:46:57,11988,1,-7.9840,-3.3494,0.0958,2.8169,5.4817,0,1.0000,-998,1,6.3177,-4.4599,-9.1118,13.3531,169.9050,0.056,0.000,1.000,0.0000,0.0000,0.0000,0.0000,0.0000,0.0000,0
2026-04-17,14:46:57,12023,1,-7.9840,-3.3208,0.1123,3.3023,5.5068,0,1.0000,-998,1,6.3461,7.5718,-8.3474,18.0347,169.9109,0.024,0.000,1.000,0.0000,0.0000,0.0000,0.0000,0.0000,0.0000,0
2026-04-17,14:46:57,12060,1,-7.9840,-3.3257,0.1015,2.9858,5.5333,0,1.0000,-998,1,6.2639,-8.4853,-7.3890,25.8095,169.8820,0.000,0.000,1.000,0.0000,0.0000,0.0000,0.0000,0.0000,0.0000,0
2026-04-17,14:46:57,12096,1,-7.9840,-3.5639,0.0948,2.7885,5.5606,0,1.0000,-998,1,5.8750,1.5369,-8.3589,-12.4325,169.8627,0.048,0.000,1.000,0.0000,0.0000,0.0000,0.0000,0.0000,0.0000,0
2026-04-17,14:46:57,12131,1,-7.9840,-3.4700,0.0914,2.6884,5.5871,0,1.0000,-998,1,6.7172,15.4279,-10.0824,-44.7061,169.7470,0.016,0.000,1.000,0.0000,0.0000,0.0000,0.0000,0.0000,0.0000,0
2026-04-17,14:46:57,12167,1,-7.9840,-3.3823,0.1017,2.9912,5.6135,0,1.0000,-998,1,6.2036,-6.5417,-12.4841,-67.1382,169.8369,0.000,0.000,1.000,0.0000,0.0000,0.0000,0.0000,0.0000,0.0000,0
2026-04-17,14:46:57,12202,1,-7.9840,-3.2268,0.1031,3.0316,5.6392,0,1.0000,-998,1,6.5774,13.3423,-13.4447,-41.5769,169.7755,0.000,0.000,1.000,0.0000,0.0000,0.0000,0.0000,0.0000,0.0000,0
2026-04-17,14:46:57,12237,1,-7.9840,-3.5052,0.1012,2.9765,5.6644,0,1.0000,-998,1,6.2154,-16.9303,-13.3876,-9.4584,169.8186,0.000,0.000,1.000,0.0000,0.0000,0.0000,0.0000,0.0000,0.0000,0
2026-04-17,14:46:57,12273,1,-7.9840,-3.7186,0.1073,3.1549,5.6913,0,1.0000,-998,1,6.5185,7.5433,-12.7403,7.9508,169.7626,0.000,0.000,1.000,0.0000,0.0000,0.0000,0.0000,0.0000,0.0000,0
2026-04-17,14:46:57,12308,1,-7.9840,-3.7066,0.0999,2.9379,5.7188,0,1.0000,-998,1,6.1999,-6.7510,-11.9544,16.4896,169.8526,0.000,0.000,1.000,0.0000,0.0000,0.0000,0.0000,0.0000,0.0000,0
2026-04-17,14:46:57,12345,1,-7.9840,-3.3145,0.1151,3.3857,5.7447,0,1.0000,-998,1,6.6146,0.8167,-11.3421,16.1783,169.8642,0.000,0.000,1.000,0.0000,0.0000,0.0000,0.0000,0.0000,0.0000,0
2026-04-17,14:46:57,12380,1,-7.9840,-3.5669,0.1202,3.5365,5.7713,0,1.0000,-998,1,5.6997,-16.4381,-10.8416,14.5365,169.9321,0.032,0.000,1.000,0.0000,0.0000,0.0000,0.0000,0.0000,0.0000,0
2026-04-17,14:46:57,12416,1,-7.9840,-3.6546,0.0929,2.7333,5.7989,0,1.0000,-998,1,6.5051,24.7027,-10.6158,9.5490,169.8384,0.048,0.000,1.000,0.0000,0.0000,0.0000,0.0000,0.0000,0.0000,0
2026-04-17,14:46:57,12452,1,-7.9840,-3.3980,0.0907,2.6671,5.8252,0,1.0000,-998,1,6.4740,-8.5872,-10.7807,1.3349,169.9451,0.016,0.000,1.000,0.0000,0.0000,0.0000,0.0000,0.0000,0.0000,0
2026-04-17,14:46:57,12487,1,-7.9840,-3.4051,0.0981,2.8845,5.8512,0,1.0000,-998,1,6.4382,2.6403,-11.0859,-6.6037,169.8057,0.000,0.000,0.998,0.0000,0.0000,0.0000,0.0000,0.0000,0.0000,0
2026-04-17,14:46:57,12522,1,-7.9840,-3.3404,0.1090,3.2066,5.8765,0,1.0000,-998,1,6.3409,-2.0778,-10.9623,0.0266,169.8889,0.000,0.000,0.995,0.0000,0.0000,0.0000,0.0000,0.0000,0.0000,0
2026-04-17,14:46:57,12558,1,-7.9840,-3.0262,0.1031,3.0318,5.8988,0,1.0000,-998,1,6.4814,-12.4529,-11.1181,-0.8901,169.7310,0.000,0.000,0.992,0.0000,0.0000,0.0000,0.0000,0.0000,0.0000,0
2026-04-17,14:46:57,12598,1,-7.9840,-3.1480,0.0944,2.7758,5.9260,0,1.0000,-998,1,6.5650,9.2125,-10.4591,12.0736,169.8215,0.000,0.000,0.990,0.0000,0.0000,0.0000,0.0000,0.0000,0.0000,0
2026-04-17,14:46:57,12633,1,-7.9840,-3.2430,0.0787,2.3151,5.9500,0,1.0000,-998,1,6.6329,-3.6308,-9.1579,27.5451,169.7923,0.000,0.000,0.986,0.0000,0.0000,0.0000,0.0000,0.0000,0.0000,0
2026-04-17,14:46:57,12669,1,-7.9840,-2.9143,0.0994,2.9244,5.9735,0,1.0000,-998,1,6.9246,5.4535,-7.6063,44.0805,169.7469,0.000,0.000,0.983,0.0000,0.0000,0.0000,0.0000,0.0000,0.0000,0
2026-04-17,14:46:57,12705,1,-7.9840,-3.1916,0.1025,3.0158,5.9969,0,1.0000,-998,1,6.0944,-23.7460,-5.5200,58.7807,169.7751,0.016,0.000,1.000,0.0000,0.0000,0.0000,0.0000,0.0000,0.0000,0
2026-04-17,14:46:57,12740,1,-7.9840,-3.1999,0.0995,2.9270,6.0206,0,1.0000,-998,1,6.5454,12.3635,-4.7121,32.3910,169.8959,0.032,0.000,1.000,0.0000,0.0000,0.0000,0.0000,0.0000,0.0000,0
2026-04-17,14:46:57,12776,1,-7.9840,-3.1488,0.0977,2.8726,6.0454,0,1.0000,-998,1,6.4842,-1.7249,-5.9966,-14.5064,169.8899,0.000,0.000,1.000,0.0000,0.0000,0.0000,0.0000,0.0000,0.0000,0
2026-04-17,14:46:57,12811,1,-7.9840,-3.0112,0.0927,2.7271,6.0675,0,1.0000,-998,1,6.5578,-5.0718,-5.9471,-1.3786,169.9277,0.000,0.000,1.000,0.0000,0.0000,0.0000,0.0000,0.0000,0.0000,0
2026-04-17,14:46:57,12847,1,-7.9840,-3.2711,0.1010,2.9695,6.0911,0,1.0000,-998,1,6.2786,-4.1892,-5.6105,3.7291,169.9749,0.000,0.000,1.000,0.0000,0.0000,0.0000,0.0000,0.0000,0.0000,0
2026-04-17,14:46:57,12882,1,-7.9840,-3.2763,0.0900,2.6476,6.1157,0,1.0000,-998,1,6.4479,-0.2809,-6.2793,-9.8081,169.9516,0.000,0.000,1.000,0.0000,0.0000,0.0000,0.0000,0.0000,0.0000,0
2026-04-17,14:46:58,12917,1,-7.9840,-3.1752,0.0876,2.5754,6.1390,0,1.0000,-998,1,6.4828,-1.9706,-5.2932,18.9111,170.0004,0.000,0.000,1.000,0.0000,0.0000,0.0000,0.0000,0.0000,0.0000,0
2026-04-17,14:46:58,12953,1,-7.9840,-3.2477,0.0950,2.7933,6.1632,0,1.0000,-998,1,6.4305,2.5195,-4.8687,11.6228,170.0250,0.000,0.000,1.000,0.0000,0.0000,0.0000,0.0000,0.0000,0.0000,0
2026-04-17,14:46:58,12989,1,-7.9840,-3.0370,0.1061,3.1219,6.1887,0,1.0000,-998,1,6.3455,-2.0907,-4.3028,17.9538,170.0145,0.000,0.000,1.000,0.0000,0.0000,0.0000,0.0000,0.0000,0.0000,0
2026-04-17,14:46:58,13024,1,-7.9840,-3.3669,0.1078,3.1700,6.2126,0,1.0000,-998,1,6.3570,-4.9766,-4.7540,-8.9671,169.9091,0.000,0.000,1.000,0.0000,0.0000,0.0000,0.0000,0.0000,0.0000,0
2026-04-17,14:46:58,13060,1,-7.9840,-3.6594,0.1137,3.3433,6.2388,0,1.0000,-998,1,6.2488,1.3979,-6.5140,-34.6528,169.9869,0.000,0.000,1.000,0.0000,0.0000,0.0000,0.0000,0.0000,0.0000,0
2026-04-17,14:46:58,13095,1,-7.9840,-3.6373,0.0967,2.8444,6.2661,0,1.0000,-998,1,6.3815,-0.8789,-8.6973,-55.4308,169.8730,0.000,0.000,1.000,0.0000,0.0000,0.0000,0.0000,0.0000,0.0000,0
2026-04-17,14:46:58,13130,1,-7.9840,-3.5629,0.0962,2.8281,6.2935,0,1.0000,-998,1,6.3661,8.9081,-9.7036,-36.5087,169.8627,0.000,0.000,1.000,0.0000,0.0000,0.0000,0.0000,0.0000,0.0000,0
2026-04-17,14:46:58,13166,1,-7.9840,-3.5578,0.0966,2.8426,6.3213,0,1.0000,-998,1,6.3077,-2.6942,-9.6514,-10.1366,169.7493,0.000,0.000,1.000,0.0000,0.0000,0.0000,0.0000,0.0000,0.0000,0
2026-04-17,14:46:58,13201,1,-7.9840,-3.5159,0.0890,2.6186,6.3480,0,1.0000,-998,1,6.1922,2.3628,-8.9950,11.3558,169.7868,0.000,0.000,1.000,0.0000,0.0000,0.0000,0.0000,0.0000,0.0000,0
2026-04-17,14:46:58,13237,1,-7.9840,-3.2524,0.1006,2.9590,6.3737,0,1.0000,-998,1,6.5543,4.8736,-8.3682,13.8988,169.7758,0.000,0.000,1.000,0.0000,0.0000,0.0000,0.0000,0.0000,0.0000,0
2026-04-17,14:46:58,13273,1,-7.9840,-3.4749,0.0997,2.9318,6.4000,0,1.0000,-998,1,5.9153,-10.8842,-7.5507,19.6091,169.8472,0.000,0.000,1.000,0.0000,0.0000,0.0000,0.0000,0.0000,0.0000,0
2026-04-17,14:46:58,13308,1,-7.9840,-3.4708,0.0961,2.8276,6.4262,0,1.0000,-998,1,6.6195,17.3988,-8.1354,-5.1935,169.7335,0.000,0.000,0.998,0.0000,0.0000,0.0000,0.0000,0.0000,0.0000,0
2026-04-17,14:46:58,13343,1,-7.9840,-3.3681,0.1087,3.1970,6.4512,0,1.0000,-998,1,6.2928,-14.2671,-9.2996,-28.1025,169.8127,0.000,0.000,0.995,0.0000,0.0000,0.0000,0.0000,0.0000,0.0000,0
2026-04-17,14:46:58,13379,1,-7.9840,-3.2616,0.0985,2.8960,6.4753,0,1.0000,-998,1,6.1404,-8.3688,-9.5391,-21.3498,169.8181,0.000,0.000,0.993,0.0000,0.0000,0.0000,0.0000,0.0000,0.0000,0
2026-04-17,14:46:58,13415,1,-7.9840,-3.4012,0.0883,2.5966,6.5025,0,1.0000,-998,1,5.8299,-6.2625,-10.4307,-25.3952,169.8957,0.048,0.000,1.000,0.0000,0.0000,0.0000,0.0000,0.0000,0.0000,0
2026-04-17,14:46:58,13450,1,-7.9840,-3.2204,0.0896,2.6364,6.5266,0,1.0000,-998,1,6.5177,11.9102,-10.5823,-12.3896,169.7967,0.016,0.000,1.000,0.0000,0.0000,0.0000,0.0000,0.0000,0.0000,0
2026-04-17,14:46:58,13486,1,-7.9840,-3.1467,0.0933,2.7453,6.5516,0,1.0000,-998,1,5.9971,-5.7407,-10.4091,3.1823,169.9245,0.000,0.000,1.000,0.0000,0.0000,0.0000,0.0000,0.0000,0.0000,0
2026-04-17,14:46:58,13521,1,-7.9840,-3.2618,0.1022,3.0053,6.5758,0,1.0000,-998,1,6.5242,10.9895,-9.5920,15.7390,169.8652,0.000,0.000,0.999,0.0000,0.0000,0.0000,0.0000,0.0000,0.0000,0
2026-04-17,14:46:58,13556,1,-7.9840,-3.3307,0.0961,2.8276,6.6003,0,1.0000,-998,1,5.7658,-18.6950,-8.9833,21.7182,169.9617,0.016,0.000,0.996,0.0000,0.0000,0.0000,0.0000,0.0000,0.0000,0
2026-04-17,14:46:58,13592,1,-7.9840,-3.4410,0.0979,2.8783,6.6276,0,1.0000,-998,1,6.1201,11.2486,-8.2639,17.4469,169.8555,0.032,0.000,0.993,0.0000,0.0000,0.0000,0.0000,0.0000,0.0000,0
2026-04-17,14:46:58,13628,1,-7.9840,-3.2105,0.1003,2.9494,6.6533,0,1.0000,-998,1,6.3953,7.1580,-8.5034,1.4317,169.8891,0.000,0.000,0.990,0.0000,0.0000,0.0000,0.0000,0.0000,0.0000,0
2026-04-17,14:46:58,13664,1,-7.9840,-3.4985,0.1120,3.2933,6.6796,0,1.0000,-998,1,5.7508,-12.9492,-9.5847,-19.1624,169.8208,0.000,0.000,0.986,0.0000,0.0000,0.0000,0.0000,0.0000,0.0000,0
2026-04-17,14:46:58,13700,1,-7.9840,-3.7098,0.1123,3.3038,6.7076,0,1.0000,-998,1,5.9500,-4.1138,-10.0280,-15.7425,169.8178,0.000,0.000,0.983,0.0000,0.0000,0.0000,0.0000,0.0000,0.0000,0
2026-04-17,14:46:58,13736,1,-7.9840,-3.7997,0.1063,3.1276,6.7366,0,1.0000,-998,1,5.7712,-0.0350,-10.2504,-6.7644,169.7872,0.000,0.000,0.980,0.0000,0.0000,0.0000,0.0000,0.0000,0.0000,0
2026-04-17,14:46:58,13772,1,-7.9840,-3.8204,0.1102,3.2409,6.7645,0,1.0000,-998,1,6.1799,3.2490,-9.9125,3.3815,169.8364,0.000,0.000,0.977,0.0000,0.0000,0.0000,0.0000,0.0000,0.0000,0
2026-04-17,14:46:58,13807,1,-7.9840,-3.7199,0.1315,3.8666,6.7937,0,1.0000,-998,1,5.9257,-0.7097,-8.5709,31.1639,169.8660,0.000,0.000,0.974,0.0000,0.0000,0.0000,0.0000,0.0000,0.0000,0
2026-04-17,14:46:58,13843,1,-7.9840,-3.7486,0.1155,3.3971,6.8215,0,1.0000,-998,1,5.9562,-11.0012,-7.6585,29.8802,169.8157,0.000,0.000,0.970,0.0000,0.0000,0.0000,0.0000,0.0000,0.0000,0
2026-04-17,14:46:58,13879,1,-7.9840,-3.7530,0.1071,3.1508,6.8500,0,1.0000,-998,1,5.7207,8.7570,-7.6974,8.5103,169.8640,0.024,0.000,0.967,0.0000,0.0000,0.0000,0.0000,0.0000,0.0000,0
2026-04-17,14:46:59,13915,1,-7.9840,-3.3976,0.0997,2.9312,6.8757,0,1.0000,-998,1,6.3608,-5.8755,-7.6097,5.0868,169.8208,0.000,0.000,0.964,0.0000,0.0000,0.0000,0.0000,0.0000,0.0000,0
2026-04-17,14:46:59,13950,1,-7.9840,-3.4341,0.0979,2.8781,6.9021,0,1.0000,-998,1,5.6900,2.0336,-8.4999,-17.1018,169.9345,0.032,0.000,0.961,0.0000,0.0000,0.0000,0.0000,0.0000,0.0000,0
2026-04-17,14:46:59,13986,1,-7.9840,-3.4315,0.1020,2.9990,6.9280,0,1.0000,-998,1,6.2470,0.5747,-8.9832,-14.3582,169.8896,0.000,0.000,0.958,0.0000,0.0000,0.0000,0.0000,0.0000,0.0000,0
2026-04-17,14:46:59,14022,1,-7.9840,-3.2178,0.0931,2.7379,6.9543,0,1.0000,-998,1,5.5946,-0.0261,-8.8436,-3.6870,169.9819,0.032,0.000,0.954,0.0000,0.0000,0.0000,0.0000,0.0000,0.0000,0
2026-04-17,14:46:59,14058,1,-7.9840,-3.3944,0.0919,2.7017,6.9807,0,1.0000,-998,1,6.0620,-3.7254,-8.3086,12.5384,169.9696,0.000,0.000,0.951,0.0000,0.0000,0.0000,0.0000,0.0000,0.0000,0
2026-04-17,14:46:59,14094,1,-7.9840,-3.0178,0.1096,3.2233,7.0051,0,1.0000,-998,1,6.0620,15.1449,-7.4750,23.9101,170.0098,0.000,0.000,0.948,0.0000,0.0000,0.0000,0.0000,0.0000,0.0000,0
2026-04-17,14:46:59,14130,1,-7.9840,-2.9683,0.0878,2.5814,7.0281,0,1.0000,-998,1,5.8054,-18.0101,-5.0699,60.5837,170.0101,0.000,0.000,0.945,0.0000,0.0000,0.0000,0.0000,0.0000,0.0000,0
2026-04-17,14:46:59,14170,1,-7.9840,-3.1730,0.0926,2.7234,7.0553,0,1.0000,-998,1,6.0695,11.2162,-3.7605,55.6223,169.9797,0.000,0.000,0.969,0.0000,0.0000,0.0000,0.0000,0.0000,0.0000,0
2026-04-17,14:46:59,14206,1,-7.9840,-2.9626,0.0812,2.3884,7.0793,0,1.0000,-998,1,6.2759,0.9347,-3.8364,11.7851,169.9139,0.000,0.000,1.000,0.0000,0.0000,0.0000,0.0000,0.0000,0.0000,0
2026-04-17,14:46:59,14242,1,-7.9840,-2.7868,0.1002,2.9460,7.1020,0,1.0000,-998,1,6.2375,3.8095,-4.2480,-1.8721,169.8745,0.000,0.000,1.000,0.0000,0.0000,0.0000,0.0000,0.0000,0.0000,0
2026-04-17,14:46:59,14278,1,-7.9840,-3.1431,0.1119,3.2906,7.1246,0,1.0000,-998,1,5.7811,-21.4489,-3.7397,11.9997,169.8842,0.000,0.000,1.000,0.0000,0.0000,0.0000,0.0000,0.0000,0.0000,0
2026-04-17,14:46:59,14314,1,-7.9840,-3.2154,0.1113,3.2740,7.1493,0,1.0000,-998,1,5.8350,8.7930,-3.4818,6.6283,169.8817,0.040,0.000,1.000,0.0000,0.0000,0.0000,0.0000,0.0000,0.0000,0
2026-04-17,14:46:59,14350,1,-7.9840,-3.4843,0.1058,3.1120,7.1756,0,1.0000,-998,1,5.8246,-4.7955,-3.6594,0.3039,169.7993,0.008,0.000,1.000,0.0000,0.0000,0.0000,0.0000,0.0000,0.0000,0
2026-04-17,14:46:59,14385,1,-7.9840,-3.7026,0.1000,2.9426,7.2027,0,1.0000,-998,1,5.8775,11.5832,-3.7292,-3.8698,169.8573,0.000,0.000,1.000,0.0000,0.0000,0.0000,0.0000,0.0000,0.0000,0
2026-04-17,14:46:59,14421,1,-7.9840,-3.6694,0.0965,2.8370,7.2311,0,1.0000,-998,1,5.9401,-4.5804,-4.0522,-6.6689,169.9088,0.000,0.000,1.000,0.0000,0.0000,0.0000,0.0000,0.0000,0.0000,0
2026-04-17,14:46:59,14456,1,-7.9840,-3.4167,0.1082,3.1838,7.2577,0,1.0000,-998,1,6.1163,11.2788,-4.1323,-3.9292,169.8587,0.000,0.000,1.000,0.0000,0.0000,0.0000,0.0000,0.0000,0.0000,0
2026-04-17,14:46:59,14491,1,-7.9840,-3.6470,0.1167,3.4323,7.2847,0,1.0000,-998,1,5.8877,-11.9537,-4.7062,-15.1808,169.9535,0.000,0.000,1.000,0.0000,0.0000,0.0000,0.0000,0.0000,0.0000,0
2026-04-17,14:46:59,14527,1,-7.9840,-3.8893,0.1177,3.4628,7.3143,0,1.0000,-998,1,5.6172,-1.7940,-6.0467,-33.3741,169.9920,0.000,0.000,1.000,0.0000,0.0000,0.0000,0.0000,0.0000,0.0000,0
2026-04-17,14:46:59,14562,1,-7.9840,-4.1543,0.1282,3.7700,7.3442,0,1.0000,-998,1,6.1240,4.2678,-7.6268,-42.5607,169.8293,0.000,0.000,1.000,0.0000,0.0000,0.0000,0.0000,0.0000,0.0000,0
2026-04-17,14:46:59,14598,1,-7.9840,-4.3436,0.1361,4.0037,7.3765,0,1.0000,-998,1,5.8499,-5.1098,-8.2919,-26.6996,169.7976,0.000,0.000,1.000,0.0000,0.0000,0.0000,0.0000,0.0000,0.0000,0
2026-04-17,14:46:59,14634,1,-7.9840,-4.4892,0.1281,3.7677,7.4097,0,1.0000,-998,1,6.0474,8.4909,-8.5914,-14.3497,169.7282,0.000,0.000,1.000,0.0000,0.0000,0.0000,0.0000,0.0000,0.0000,0
2026-04-17,14:46:59,14669,1,-7.9840,-4.6132,0.1229,3.6147,7.4443,0,1.0000,-998,1,5.7298,-8.1436,-8.1639,4.7194,169.8804,0.000,0.000,1.000,0.0000,0.0000,0.0000,0.0000,0.0000,0.0000,0
2026-04-17,14:46:59,14705,1,-7.9840,-4.1968,0.1310,3.8538,7.4786,0,1.0000,-998,1,6.3620,24.6480,-7.8560,4.1748,169.7401,0.000,0.000,1.000,0.0000,0.0000,0.0000,0.0000,0.0000,0.0000,0
2026-04-17,14:46:59,14740,1,-7.9840,-4.4265,0.1281,3.7677,7.5114,0,1.0000,-998,1,5.7068,-30.3856,-8.0015,-0.3807,169.8075,0.000,0.000,1.000,0.0000,0.0000,0.0000,0.0000,0.0000,0.0000,0
2026-04-17,14:46:59,14776,1,-7.9840,-4.5580,0.1100,3.2360,7.5461,0,1.0000,-998,1,5.9623,16.8790,-8.1465,-3.1731,169.6970,0.040,0.000,1.000,0.0000,0.0000,0.0000,0.0000,0.0000,0.0000,0
2026-04-17,14:46:59,14812,1,-7.9840,-4.0919,0.1049,3.0857,7.5781,0,1.0000,-998,1,6.0939,-10.2654,-8.4895,-10.4978,169.9856,0.008,0.000,1.000,0.0000,0.0000,0.0000,0.0000,0.0000,0.0000,0
2026-04-17,14:46:59,14847,1,-7.9840,-3.9499,0.1138,3.3473,7.6087,0,1.0000,-998,1,5.9061,9.5270,-8.7539,-7.2294,169.8109,0.008,0.000,1.000,0.0000,0.0000,0.0000,0.0000,0.0000,0.0000,0
2026-04-17,14:46:59,14882,1,-7.9840,-4.1190,0.1030,3.0304,7.6396,0,1.0000,-998,1,5.7535,-11.6787,-8.4918,2.9604,169.8127,0.000,0.000,1.000,0.0000,0.0000,0.0000,0.0000,0.0000,0.0000,0
2026-04-17,14:47:00,14918,1,-7.9840,-3.8468,0.1055,3.1016,7.6699,0,1.0000,-998,1,6.2778,17.6944,-7.7857,15.8007,169.7195,0.000,0.000,1.000,0.0000,0.0000,0.0000,0.0000,0.0000,0.0000,0
2026-04-17,14:47:00,14957,1,-7.9840,-3.9321,0.1069,3.1430,7.7032,0,1.0000,-998,1,6.0698,0.0771,-7.4475,15.6958,169.7734,0.000,0.000,0.998,0.0000,0.0000,0.0000,0.0000,0.0000,0.0000,0
2026-04-17,14:47:00,14992,1,-7.9840,-4.0166,0.1103,3.2449,7.7331,0,1.0000,-998,1,6.3280,12.2994,-7.0716,12.5131,169.7408,0.000,0.000,0.994,0.0000,0.0000,0.0000,0.0000,0.0000,0.0000,0
2026-04-17,14:47:00,15028,1,-7.9840,-3.9056,0.1175,3.4570,7.7638,0,1.0000,-998,1,6.0933,-12.7871,-8.6243,-30.1584,169.6107,0.000,0.000,0.991,0.0000,0.0000,0.0000,0.0000,0.0000,0.0000,0
2026-04-17,14:47:00,15063,1,-7.9840,-3.5760,0.1220,3.5886,7.7904,0,1.0000,-998,1,6.3296,3.2273,-10.2032,-42.0588,169.5372,0.000,0.000,0.988,0.0000,0.0000,0.0000,0.0000,0.0000,0.0000,0
2026-04-17,14:47:00,15098,1,-7.9840,-3.8164,0.1178,3.4632,7.8185,0,1.0000,-998,1,5.8947,-8.2789,-10.6968,-20.0292,169.5767,0.000,0.000,1.000,0.0000,0.0000,0.0000,0.0000,0.0000,0.0000,0
2026-04-17,14:47:00,15134,1,-7.9840,-4.0105,0.1028,3.0223,7.8489,0,1.0000,-998,1,6.2115,7.4166,-9.1653,23.1993,169.6779,0.000,0.000,1.000,0.0000,0.0000,0.0000,0.0000,0.0000,0.0000,0
2026-04-17,14:47:00,15169,1,-7.9840,-3.7821,0.0954,2.8067,7.8778,0,1.0000,-998,1,6.3862,4.7311,-7.9330,33.1020,169.6477,0.000,0.000,0.997,0.0000,0.0000,0.0000,0.0000,0.0000,0.0000,0
2026-04-17,14:47:00,15205,1,-7.9840,-3.6837,0.1232,3.6240,7.9056,0,1.0000,-998,1,6.2009,-5.8001,-6.2614,43.9683,169.7789,0.000,0.000,1.000,0.0000,0.0000,0.0000,0.0000,0.0000,0.0000,0
2026-04-17,14:47:00,15240,1,-7.9840,-3.8273,0.1101,3.2387,7.9343,0,1.0000,-998,1,5.7841,-8.7497,-5.6961,27.1337,169.7344,0.016,0.000,1.000,0.0000,0.0000,0.0000,0.0000,0.0000,0.0000,0
2026-04-17,14:47:00,15275,1,-7.9840,-3.8636,0.0981,2.8850,7.9632,0,1.0000,-998,1,6.2190,13.7115,-6.9597,-19.2847,169.7668,0.000,0.000,1.000,0.0000,0.0000,0.0000,0.0000,0.0000,0.0000,0
2026-04-17,14:47:00,15310,1,-7.9840,-3.6851,0.1133,3.3314,7.9917,0,1.0000,-998,1,6.2421,-4.7442,-7.5518,-15.4870,169.7412,0.000,0.000,0.999,0.0000,0.0000,0.0000,0.0000,0.0000,0.0000,0
2026-04-17,14:47:00,15346,1,-7.9840,-3.9855,0.1158,3.4055,8.0214,0,1.0000,-998,1,5.8396,-6.4320,-7.4153,-1.4493,169.8094,0.000,0.000,0.996,0.0000,0.0000,0.0000,0.0000,0.0000,0.0000,0
2026-04-17,14:47:00,15381,1,-7.9840,-3.9732,0.1208,3.5525,8.0515,0,1.0000,-998,1,6.3010,15.2964,-6.0355,29.5482,169.8189,0.000,0.000,0.993,0.0000,0.0000,0.0000,0.0000,0.0000,0.0000,0
2026-04-17,14:47:00,15417,1,-7.9840,-4.0222,0.1168,3.4353,8.0820,0,1.0000,-998,1,5.8217,-19.8904,-5.1566,26.0209,169.7300,0.000,0.000,0.990,0.0000,0.0000,0.0000,0.0000,0.0000,0.0000,0
2026-04-17,14:47:00,15453,1,-7.9840,-4.2786,0.1172,3.4474,8.1149,0,1.0000,-998,1,5.8124,-0.9856,-5.2686,5.3531,169.5983,0.000,0.000,1.000,0.0000,0.0000,0.0000,0.0000,0.0000,0.0000,0
2026-04-17,14:47:00,15488,1,-7.9840,-3.7931,0.1334,3.9230,8.1455,0,1.0000,-998,1,6.2380,16.1235,-6.3408,-21.7746,169.5796,0.000,0.000,1.000,0.0000,0.0000,0.0000,0.0000,0.0000,0.0000,0
2026-04-17,14:47:00,15523,1,-7.9840,-3.8013,0.1222,3.5933,8.1736,0,1.0000,-998,1,5.6924,-26.2357,-6.7491,-13.2676,169.5234,0.000,0.000,0.998,0.0000,0.0000,0.0000,0.0000,0.0000,0.0000,0
2026-04-17,14:47:00,15559,1,-7.9840,-3.9197,0.1065,3.1311,8.2034,0,1.0000,-998,1,5.5330,4.4956,-7.2610,-12.8063,169.5143,0.064,0.000,0.994,0.0000,0.0000,0.0000,0.0000,0.0000,0.0000,0
2026-04-17,14:47:00,15595,1,-7.9840,-3.4889,0.1180,3.4693,8.2325,0,1.0000,-998,1,6.3789,20.4169,-6.6971,9.2981,169.5271,0.032,0.000,0.991,0.0000,0.0000,0.0000,0.0000,0.0000,0.0000,0
2026-04-17,14:47:00,15631,1,-7.9840,-3.7913,0.1109,3.2627,8.2603,0,1.0000,-998,1,5.3727,-26.5263,-5.7164,24.3110,169.6584,0.024,0.000,0.988,0.0000,0.0000,0.0000,0.0000,0.0000,0.0000,0
2026-04-17,14:47:00,15667,1,-7.9840,-3.7840,0.1003,2.9489,8.2898,0,1.0000,-998,1,5.8878,21.9500,-5.2517,17.5071,169.6337,0.040,0.000,0.985,0.0000,0.0000,0.0000,0.0000,0.0000,0.0000,0
2026-04-17,14:47:00,15702,1,-7.9840,-3.7162,0.1111,3.2663,8.3162,0,1.0000,-998,1,5.8212,-20.3466,-4.6445,18.4783,169.7255,0.008,0.000,0.982,0.0000,0.0000,0.0000,0.0000,0.0000,0.0000,0
2026-04-17,14:47:00,15739,1,-7.9840,-3.7587,0.0995,2.9256,8.3426,0,1.0000,-998,1,5.6322,-11.1119,-4.4654,14.1505,169.7177,0.000,0.000,0.997,0.0000,0.0000,0.0000,0.0000,0.0000,0.0000,0
2026-04-17,14:47:00,15775,1,-7.9840,-3.7114,0.0923,2.7153,8.3740,0,1.0000,-998,1,6.0604,-2.8765,-4.9173,-4.0437,169.8627,0.000,0.000,1.000,0.0000,0.0000,0.0000,0.0000,0.0000,0.0000,0
2026-04-17,14:47:00,15810,1,-7.9840,-3.4584,0.1147,3.3743,8.4005,0,1.0000,-998,1,5.7073,-4.0025,-6.6439,-36.4141,169.8163,0.000,0.000,0.998,0.0000,0.0000,0.0000,0.0000,0.0000,0.0000,0
2026-04-17,14:47:00,15846,1,-7.9840,-3.6147,0.1040,3.0600,8.4283,0,1.0000,-998,1,5.7616,2.7995,-8.1958,-41.3794,169.9189,0.000,0.000,0.994,0.0000,0.0000,0.0000,0.0000,0.0000,0.0000,0
2026-04-17,14:47:00,15881,1,-7.9840,-3.7965,0.0962,2.8296,8.4569,0,1.0000,-998,1,5.5977,1.6871,-8.4931,-19.6538,170.0193,0.000,0.000,1.000,0.0000,0.0000,0.0000,0.0000,0.0000,0.0000,0
2026-04-17,14:47:01,15916,1,-7.9840,-3.6587,0.1049,3.0856,8.4840,0,1.0000,-998,1,6.2246,7.5649,-7.9742,4.8729,170.0392,0.000,0.000,1.000,0.0000,0.0000,0.0000,0.0000,0.0000,0.0000,0
2026-04-17,14:47:01,15952,1,-7.9840,-3.6645,0.1055,3.1022,8.5124,0,1.0000,-998,1,5.6406,-6.7484,-7.1736,18.4690,170.0282,0.000,0.000,0.999,0.0000,0.0000,0.0000,0.0000,0.0000,0.0000,0
2026-04-17,14:47:01,15988,1,-7.9840,-3.8612,0.0972,2.8577,8.5421,0,1.0000,-998,1,5.8375,2.1129,-6.0652,28.7413,169.9062,0.000,0.000,0.996,0.0000,0.0000,0.0000,0.0000,0.0000,0.0000,0
2026-04-17,14:47:01,16024,1,-7.9840,-3.4682,0.1110,3.2634,8.5695,0,1.0000,-998,1,6.0394,9.9512,-6.0499,7.2744,169.7735,0.000,0.000,0.993,0.0000,0.0000,0.0000,0.0000,0.0000,0.0000,0
2026-04-17,14:47:01,16060,1,-7.9840,-3.7340,0.1170,3.4415,8.5986,0,1.0000,-998,1,5.7886,-12.2706,-7.0102,-18.9935,169.8296,0.000,0.000,0.990,0.0000,0.0000,0.0000,0.0000,0.0000,0.0000,0
2026-04-17,14:47:01,16095,1,-7.9840,-3.9729,0.1140,3.3531,8.6277,0,1.0000,-998,1,5.8445,8.0058,-7.9893,-24.8326,169.8567,0.000,0.000,0.986,0.0000,0.0000,0.0000,0.0000,0.0000,0.0000,0
2026-04-17,14:47:01,16131,1,-7.9840,-3.9049,0.1321,3.8866,8.6575,0,1.0000,-998,1,5.9469,1.1123,-7.9677,-5.1455,169.9524,0.000,0.000,0.983,0.0000,0.0000,0.0000,0.0000,0.0000,0.0000,0
2026-04-17,14:47:01,16166,1,-7.9840,-3.9735,0.1119,3.2917,8.6867,0,1.0000,-998,1,5.8086,-15.7050,-7.5681,4.1667,169.9471,0.000,0.000,0.980,0.0000,0.0000,0.0000,0.0000,0.0000,0.0000,0
2026-04-17,14:47:01,16201,1,-7.9840,-3.8935,0.1223,3.5974,8.7162,0,1.0000,-998,1,6.0390,17.3358,-7.0892,14.2318,169.9476,0.000,0.000,0.977,0.0000,0.0000,0.0000,0.0000,0.0000,0.0000,0
2026-04-17,14:47:01,16236,1,-7.9840,-4.0447,0.1161,3.4146,8.7457,0,1.0000,-998,1,5.8538,-18.1412,-5.8622,30.1442,169.8945,0.000,0.000,0.974,0.0000,0.0000,0.0000,0.0000,0.0000,0.0000,0
2026-04-17,14:47:01,16272,1,-7.9840,-4.0108,0.1180,3.4698,8.7749,0,1.0000,-998,1,5.8270,2.2991,-5.2661,20.0037,169.8180,0.000,0.000,0.970,0.0000,0.0000,0.0000,0.0000,0.0000,0.0000,0
2026-04-17,14:47:01,16308,1,-7.9840,-3.8422,0.1071,3.1493,8.8046,0,1.0000,-998,1,5.9081,-2.0907,-6.0096,-10.3696,169.8547,0.000,0.000,0.967,0.0000,0.0000,0.0000,0.0000,0.0000,0.0000,0
2026-04-17,14:47:01,16344,1,-7.9840,-3.5383,0.1007,2.9619,8.8309,0,1.0000,-998,1,6.1495,-1.4600,-6.9604,-23.4381,169.8419,0.000,0.000,0.964,0.0000,0.0000,0.0000,0.0000,0.0000,0.0000,0
2026-04-17,14:47:01,16380,1,-7.9840,-3.3938,0.0868,2.5522,8.8568,0,1.0000,-998,1,5.5617,-8.6191,-7.3969,-13.3323,169.9117,0.032,0.000,0.961,0.0000,0.0000,0.0000,0.0000,0.0000,0.0000,0
2026-04-17,14:47:01,16416,1,-7.9840,-3.2260,0.1066,3.1367,8.8823,0,1.0000,-998,1,6.3702,18.4961,-7.5823,-9.7504,169.8470,0.000,0.000,0.958,0.0000,0.0000,0.0000,0.0000,0.0000,0.0000,0
2026-04-17,14:47:01,16452,1,-7.9840,-3.5088,0.1143,3.3631,8.9087,0,1.0000,-998,1,5.2375,-27.7288,-6.9351,8.3386,169.9400,0.016,0.000,0.954,0.0000,0.0000,0.0000,0.0000,0.0000,0.0000,0
2026-04-17,14:47:01,16488,1,-7.9840,-3.5671,0.0929,2.7329,8.9362,0,1.0000,-998,1,5.9110,18.6661,-7.1563,1.1078,169.7603,0.032,0.000,0.951,0.0000,0.0000,0.0000,0.0000,0.0000,0.0000,0
2026-04-17,14:47:01,16528,1,-7.9840,-3.2907,0.1125,3.3090,8.9657,0,1.0000,-998,1,5.9127,3.9928,-7.2837,-2.5179,169.8391,0.008,0.000,0.949,0.0000,0.0000,0.0000,0.0000,0.0000,0.0000,0
2026-04-17,14:47:01,16563,1,-7.9840,-3.6002,0.1091,3.2097,8.9922,0,1.0000,-998,1,5.7826,1.0561,-8.3090,-21.2642,169.7002,0.000,0.000,0.946,0.0000,0.0000,0.0000,0.0000,0.0000,0.0000,0
2026-04-17,14:47:01,16599,1,-7.9840,-3.7832,0.0921,2.7087,9.0198,0,1.0000,-998,1,5.6336,-5.9270,-9.7032,-36.4893,169.8470,0.000,0.000,0.942,0.0000,0.0000,0.0000,0.0000,0.0000,0.0000,0
2026-04-17,14:47:01,16634,1,-7.9840,-3.4700,0.0950,2.7954,9.0451,0,1.0000,-998,1,6.0010,4.3265,-11.0843,-42.9167,169.7426,0.000,0.000,0.939,0.0000,0.0000,0.0000,0.0000,0.0000,0.0000,0
2026-04-17,14:47:01,16670,1,-7.9840,-3.4252,0.0960,2.8222,9.0714,0,1.0000,-998,1,5.5674,-3.7187,-12.4005,-40.2956,169.8613,0.000,0.000,0.971,0.0000,0.0000,0.0000,0.0000,0.0000,0.0000,0
2026-04-17,14:47:01,16705,1,-7.9840,-3.4771,0.0911,2.6807,9.0980,0,1.0000,-998,1,5.7756,2.9725,-13.4466,-33.6479,169.7034,0.000,0.000,1.000,0.0000,0.0000,0.0000,0.0000,0.0000,0.0000,0
2026-04-17,14:47:01,16741,1,-7.9840,-3.3477,0.1068,3.1420,9.1236,0,1.0000,-998,1,5.7547,2.9454,-13.2286,-5.3374,169.7886,0.000,0.000,1.000,0.0000,0.0000,0.0000,0.0000,0.0000,0.0000,0
2026-04-17,14:47:01,16777,1,-7.9840,-3.5465,0.1144,3.3648,9.1512,0,1.0000,-998,1,5.5085,-7.1460,-12.2434,18.8610,169.7898,0.000,0.000,1.000,0.0000,0.0000,0.0000,0.0000,0.0000,0.0000,0
2026-04-17,14:47:01,16813,1,-7.9840,-3.7075,0.1092,3.2111,9.1802,0,1.0000,-998,1,5.1691,-9.9768,-10.9245,34.0307,169.7827,0.032,0.000,1.000,0.0000,0.0000,0.0000,0.0000,0.0000,0.0000,0
2026-04-17,14:47:01,16849,1,-7.9840,-3.5136,0.1100,3.2366,9.2085,0,1.0000,-998,1,5.5143,10.4587,-9.9981,26.5056,169.8268,0.024,0.000,1.000,0.0000,0.0000,0.0000,0.0000,0.0000,0.0000,0
2026-04-17,14:47:01,16885,1,-7.9840,-3.2079,0.1161,3.4139,9.2342,0,1.0000,-998,1,5.3869,-5.0200,-10.5913,-5.9835,169.8065,0.000,0.000,1.000,0.0000,0.0000,0.0000,0.0000,0.0000,0.0000,0
2026-04-17,14:47:02,16920,1,-7.9840,-3.1526,0.0925,2.7194,9.2571,0,1.0000,-998,1,5.4074,-7.2338,-12.1715,-33.1820,169.8279,0.000,0.000,1.000,0.0000,0.0000,0.0000,0.0000,0.0000,0.0000,0
2026-04-17,14:47:02,16956,1,-7.9840,-3.0519,0.0974,2.8646,9.2818,0,1.0000,-998,1,5.3585,13.1120,-12.1800,-10.9135,169.9297,0.000,0.000,1.000,0.0000,0.0000,0.0000,0.0000,0.0000,0.0000,0
2026-04-17,14:47:02,16992,1,-7.9840,-2.8115,0.0894,2.6299,9.3032,0,1.0000,-998,1,5.5838,-10.8491,-12.6411,-14.0357,169.7987,0.000,0.000,1.000,0.0000,0.0000,0.0000,0.0000,0.0000,0.0000,0
2026-04-17,14:47:02,17028,1,-7.9840,-3.0162,0.1176,3.4589,9.3262,0,1.0000,-998,1,5.0792,0.0269,-12.9190,-8.7155,169.7369,0.032,0.000,1.000,0.0000,0.0000,0.0000,0.0000,0.0000,0.0000,0
2026-04-17,14:47:02,17064,1,-7.9840,-2.8691,0.0885,2.6038,9.3476,0,1.0000,-998,1,5.4267,-7.1001,-13.0671,-6.9790,169.6584,0.000,0.000,1.000,0.0000,0.0000,0.0000,0.0000,0.0000,0.0000,0
2026-04-17,14:47:02,17099,1,-7.9840,-2.9948,0.0978,2.8767,9.3700,0,1.0000,-998,1,4.8321,-2.5445,-14.5614,-37.8176,169.7815,0.048,0.000,0.998,0.0000,0.0000,0.0000,0.0000,0.0000,0.0000,0
2026-04-17,14:47:02,17134,1,-7.9840,-2.8369,0.0852,2.5066,9.3910,0,1.0000,-998,1,5.4330,1.4466,-17.2311,-69.0517,169.6956,0.016,0.000,1.000,0.0000,0.0000,0.0000,0.0000,0.0000,0.0000,0
2026-04-17,14:47:02,17169,1,-7.9840,-2.6480,0.0894,2.6301,9.4121,0,1.0000,-998,1,4.8903,-2.4378,-20.1806,-84.0072,169.6101,0.000,0.000,0.998,0.0000,0.0000,0.0000,0.0000,0.0000,0.0000,0
2026-04-17,14:47:02,17205,1,-7.9840,-2.8010,0.0884,2.5995,9.4331,0,1.0000,-998,1,5.0684,-2.9422,-23.8336,-105.8549,169.5209,0.000,0.000,1.000,0.0000,0.0000,0.0000,0.0000,0.0000,0.0000,0
2026-04-17,14:47:02,17241,1,-7.9840,-2.8863,0.0776,2.2832,9.4554,0,1.0000,-998,1,4.8424,2.0319,-27.0882,-102.0166,169.5570,0.000,0.000,0.997,0.0000,0.0000,0.0000,0.0000,0.0000,0.0000,0
2026-04-17,14:47:02,17277,1,-7.9840,-2.8892,0.0946,2.7824,9.4776,0,1.0000,-998,1,5.2697,7.9996,-29.6686,-86.9692,169.4208,0.000,0.000,1.000,0.0000,0.0000,0.0000,0.0000,0.0000,0.0000,0
2026-04-17,14:47:02,17316,1,-7.9840,-2.9546,0.0830,2.4402,9.5016,0,1.0000,-998,1,5.0494,-1.9168,-30.5051,-64.8382,169.3670,0.000,0.000,1.000,0.0000,0.0000,0.0000,0.0000,0.0000,0.0000,0
2026-04-17,14:47:02,17351,1,-7.9840,-3.0185,0.0839,2.4690,9.5241,0,1.0000,-998,1,5.4815,17.8307,-30.3563,-13.7872,169.3572,0.000,0.000,1.000,0.0000,0.0000,0.0000,0.0000,0.0000,0.0000,0
2026-04-17,14:47:02,17387,1,-7.9840,-2.9426,0.0811,2.3856,9.5470,0,1.0000,-998,1,4.8970,-21.8825,-26.4597,80.0194,169.4637,0.000,0.000,0.999,0.0000,0.0000,0.0000,0.0000,0.0000,0.0000,0
2026-04-17,14:47:02,17422,1,-7.9840,-3.0971,0.0983,2.8911,9.5693,0,1.0000,-998,1,5.2832,19.3493,-20.4009,155.9413,169.3884,0.000,0.000,1.000,0.0000,0.0000,0.0000,0.0000,0.0000,0.0000,0
2026-04-17,14:47:02,17458,1,-7.9840,-3.0836,0.0781,2.2985,9.5927,0,1.0000,-998,1,4.7628,-21.1161,-15.3407,152.7672,169.5721,0.000,0.000,0.999,0.0000,0.0000,0.0000,0.0000,0.0000,0.0000,0
2026-04-17,14:47:02,17494,1,-7.9840,-3.0001,0.1076,3.1648,9.6150,0,1.0000,-998,1,5.2956,15.8026,-13.8372,77.7139,169.5086,0.000,0.000,1.000,0.0000,0.0000,0.0000,0.0000,0.0000,0.0000,0
2026-04-17,14:47:02,17529,1,-7.9840,-3.0287,0.0960,2.8222,9.6371,0,1.0000,-998,1,4.4611,-23.5246,-15.1563,-4.6336,169.6888,0.016,0.000,0.998,0.0000,0.0000,0.0000,0.0000,0.0000,0.0000,0
2026-04-17,14:47:02,17565,1,-7.9840,-3.3931,0.0976,2.8702,9.6616,0,1.0000,-998,1,4.8407,12.9594,-16.9895,-33.2066,169.5986,0.032,0.000,0.994,0.0000,0.0000,0.0000,0.0000,0.0000,0.0000,0
2026-04-17,14:47:02,17600,1,-7.9840,-3.0293,0.1068,3.1420,9.6857,0,1.0000,-998,1,5.0154,0.6205,-17.2456,-17.3878,169.7316,0.000,0.000,1.000,0.0000,0.0000,0.0000,0.0000,0.0000,0.0000,0
2026-04-17,14:47:02,17635,1,-7.9840,-2.8979,0.0992,2.9180,9.7066,0,1.0000,-998,1,4.8232,-4.3984,-18.0387,-22.9810,169.5020,0.000,0.000,0.997,0.0000,0.0000,0.0000,0.0000,0.0000,0.0000,0
2026-04-17,14:47:02,17671,1,-7.9840,-3.0415,0.0863,2.5376,9.7293,0,1.0000,-998,1,4.5975,-3.7491,-18.6090,-18.4833,169.5798,0.000,0.000,0.994,0.0000,0.0000,0.0000,0.0000,0.0000,0.0000,0
2026-04-17,14:47:02,17707,1,-7.9840,-3.0051,0.0904,2.6587,9.7530,0,1.0000,-998,1,4.9162,9.7478,-18.4140,3.4712,169.6260,0.000,0.000,0.990,0.0000,0.0000,0.0000,0.0000,0.0000,0.0000,0
2026-04-17,14:47:02,17742,1,-7.9840,-2.7769,0.0787,2.3149,9.7730,0,1.0000,-998,1,5.0111,-6.0276,-16.2464,45.7894,169.7603,0.000,0.000,1.000,0.0000,0.0000,0.0000,0.0000,0.0000,0.0000,0
2026-04-17,14:47:02,17778,1,-7.9840,-2.9070,0.0854,2.5128,9.7951,0,1.0000,-998,1,4.8469,3.1647,-15.4587,27.2397,169.9656,0.000,0.000,0.997,0.0000,0.0000,0.0000,0.0000,0.0000,0.0000,0
2026-04-17,14:47:02,17814,1,-7.9840,-2.7920,0.0933,2.7429,9.8173,0,1.0000,-998,1,4.8732,-5.4827,-15.7392,1.0674,170.0735,0.000,0.000,0.998,0.0000,0.0000,0.0000,0.0000,0.0000,0.0000,0
2026-04-17,14:47:02,17849,1,-7.9840,-2.9586,0.0746,2.1927,9.8386,0,1.0000,-998,1,4.7998,-0.7439,-18.6185,-60.3220,169.9971,0.000,0.000,0.995,0.0000,0.0000,0.0000,0.0000,0.0000,0.0000,0
2026-04-17,14:47:02,17884,1,-7.9840,-2.7072,0.0862,2.5340,9.8591,0,1.0000,-998,1,5.1303,7.0267,-22.1336,-92.6507,169.7678,0.000,0.000,1.000,0.0000,0.0000,0.0000,0.0000,0.0000,0.0000,0
2026-04-17,14:47:03,17920,1,-7.9840,-2.8776,0.0906,2.6652,9.8811,0,1.0000,-998,1,4.5141,-10.4818,-25.8273,-107.4109,169.7238,0.016,0.000,0.997,0.0000,0.0000,0.0000,0.0000,0.0000,0.0000,0
2026-04-17,14:47:03,17955,1,-7.9840,-3.0812,0.1138,3.3464,9.9035,0,1.0000,-998,1,5.0878,11.5694,-28.0455,-79.6252,169.6422,0.000,0.000,1.000,0.0000,0.0000,0.0000,0.0000,0.0000,0.0000,0
2026-04-17,14:47:03,17991,1,-7.9840,-2.8988,0.0812,2.3885,9.9255,0,1.0000,-998,1,4.5812,-16.0409,-28.2370,-27.9540,169.7471,0.000,0.000,0.998,0.0000,0.0000,0.0000,0.0000,0.0000,0.0000,0
2026-04-17,14:47:03,18027,1,-7.9840,-2.9262,0.0797,2.3429,9.9479,0,1.0000,-998,1,4.8513,11.9460,-26.1129,37.6940,169.6530,0.000,0.000,0.994,0.0000,0.0000,0.0000,0.0000,0.0000,0.0000,0
2026-04-17,14:47:03,18062,1,-7.9840,-2.4555,0.0898,2.6405,9.9686,0,1.0000,-998,1,5.1007,7.5832,-21.8608,104.5261,169.6344,0.000,0.000,1.000,0.0000,0.0000,0.0000,0.0000,0.0000,0.0000,0
2026-04-17,14:47:03,18099,1,-7.9840,-2.6679,0.0928,2.7280,9.9890,0,1.0000,-998,1,4.8412,-1.3548,-20.0794,86.8658,169.6699,0.000,0.000,0.998,0.0000,0.0000,0.0000,0.0000,0.0000,0.0000,0
2026-04-17,14:47:03,18134,1,-7.9840,-2.9557,0.0965,2.8384,10.0109,0,1.0000,-998,1,5.4304,21.7629,-17.9102,70.7110,169.9524,0.000,0.000,1.000,0.0000,0.0000,0.0000,0.0000,0.0000,0.0000,0
2026-04-17,14:47:03,18170,1,-7.9840,-2.9932,0.0820,2.4127,10.0345,0,1.0000,-998,1,4.2919,-31.4120,-17.0920,39.6959,169.9734,0.016,0.000,0.998,0.0000,0.0000,0.0000,0.0000,0.0000,0.0000,0
2026-04-17,14:47:03,18206,1,-7.9840,-2.8124,0.0913,2.6856,10.0569,0,1.0000,-998,1,5.7608,44.8721,-15.6361,48.5121,169.8586,0.008,0.000,1.000,0.0000,0.0000,0.0000,0.0000,0.0000,0.0000,0
2026-04-17,14:47:03,18241,1,-7.9840,-2.6897,0.0899,2.6426,10.0777,0,1.0000,-998,1,4.4624,-43.0289,-13.9473,49.8160,169.8160,0.000,0.000,0.998,0.0000,0.0000,0.0000,0.0000,0.0000,0.0000,0
2026-04-17,14:47:03,18276,1,-7.9840,-2.7417,0.0795,2.3368,10.0982,0,1.0000,-998,1,5.0199,25.1117,-14.3873,-0.3022,169.5429,0.040,0.000,1.000,0.0000,0.0000,0.0000,0.0000,0.0000,0.0000,0
2026-04-17,14:47:03,18312,1,-7.9840,-2.9017,0.0912,2.6818,10.1199,0,1.0000,-998,1,4.5251,-28.4859,-17.1867,-57.0738,169.6761,0.008,0.000,0.998,0.0000,0.0000,0.0000,0.0000,0.0000,0.0000,0
2026-04-17,14:47:03,18348,1,-7.9840,-2.6311,0.0831,2.4437,10.1415,0,1.0000,-998,1,4.9681,27.7284,-19.6211,-68.5424,169.3064,0.048,0.000,0.995,0.0000,0.0000,0.0000,0.0000,0.0000,0.0000,0
2026-04-17,14:47:03,18384,1,-7.9840,-2.8983,0.0891,2.6207,10.1635,0,1.0000,-998,1,4.6546,-22.0286,-20.6108,-43.3072,169.6126,0.016,0.000,0.998,0.0000,0.0000,0.0000,0.0000,0.0000,0.0000,0
2026-04-17,14:47:03,18420,1,-7.9840,-2.9219,0.0927,2.7264,10.1868,0,1.0000,-998,1,4.5133,6.9620,-20.6249,-15.9451,169.4392,0.032,0.000,0.995,0.0000,0.0000,0.0000,0.0000,0.0000,0.0000,0
2026-04-17,14:47:03,18455,1,-7.9840,-3.3299,0.1005,2.9570,10.2100,0,1.0000,-998,1,4.7841,-4.0154,-18.8764,37.7004,169.5911,0.000,0.000,0.992,0.0000,0.0000,0.0000,0.0000,0.0000,0.0000,0
2026-04-17,14:47:03,18491,1,-7.9840,-3.1207,0.0939,2.7614,10.2343,0,1.0000,-998,1,4.4570,7.8999,-15.2399,82.2029,169.5654,0.008,0.000,0.989,0.0000,0.0000,0.0000,0.0000,0.0000,0.0000,0
2026-04-17,14:47:03,18526,1,-7.9840,-2.8414,0.1200,3.5297,10.2549,0,1.0000,-998,1,5.4170,8.4106,-14.2422,43.2268,169.7605,0.000,0.000,1.000,0.0000,0.0000,0.0000,0.0000,0.0000,0.0000,0
2026-04-17,14:47:03,18561,1,-7.9840,-2.8537,0.1048,3.0813,10.2763,0,1.0000,-998,1,3.8738,-26.0148,-14.8056,2.3506,169.9839,0.032,0.000,0.997,0.0000,0.0000,0.0000,0.0000,0.0000,0.0000,0
2026-04-17,14:47:03,18597,1,-7.9840,-3.2205,0.1108,3.2602,10.3000,0,1.0000,-998,1,4.7759,11.7449,-16.6177,-40.2964,169.8022,0.024,0.000,0.994,0.0000,0.0000,0.0000,0.0000,0.0000,0.0000,0
2026-04-17,14:47:03,18633,1,-7.9840,-2.8018,0.1065,3.1317,10.3230,0,1.0000,-998,1,4.3224,-1.6519,-19.0623,-60.8169,169.9795,0.000,0.000,0.990,0.0000,0.0000,0.0000,0.0000,0.0000,0.0000,0
2026-04-17,14:47:03,18668,1,-7.9840,-2.8327,0.0987,2.9033,10.3434,0,1.0000,-998,1,5.2018,9.1195,-18.4408,-3.8467,169.7745,0.000,0.000,1.000,0.0000,0.0000,0.0000,0.0000,0.0000,0.0000,0
2026-04-17,14:47:03,18704,1,-7.9840,-2.9055,0.0903,2.6550,10.3657,0,1.0000,-998,1,4.2350,-13.7165,-16.4922,37.2570,169.9252,0.016,0.000,0.997,0.0000,0.0000,0.0000,0.0000,0.0000,0.0000,0
2026-04-17,14:47:03,18740,1,-7.9840,-2.8275,0.0805,2.3688,10.3875,0,1.0000,-998,1,5.1882,17.4546,-13.9867,65.4736,169.7289,0.000,0.000,1.000,0.0000,0.0000,0.0000,0.0000,0.0000,0.0000,0
2026-04-17,14:47:03,18775,1,-7.9840,-2.7831,0.0836,2.4578,10.4085,0,1.0000,-998,1,4.5526,-6.6877,-10.9244,88.5301,169.7644,0.000,0.000,0.997,0.0000,0.0000,0.0000,0.0000,0.0000,0.0000,0
2026-04-17,14:47:03,18811,1,-7.9840,-2.7822,0.0918,2.6995,10.4303,0,1.0000,-998,1,4.8822,1.2348,-8.0038,84.6118,169.5838,0.000,0.000,0.994,0.0000,0.0000,0.0000,0.0000,0.0000,0.0000,0
2026-04-17,14:47:03,18847,1,-7.9840,-3.1432,0.0893,2.6267,10.4526,0,1.0000,-998,1,4.2760,-12.4010,-7.1393,47.2591,169.7300,0.016,0.000,0.990,0.0000,0.0000,0.0000,0.0000,0.0000,0.0000,0
2026-04-17,14:47:03,18887,1,-7.9840,-2.8980,0.0849,2.4963,10.4772,0,1.0000,-998,1,4.3585,-8.0866,-6.7798,34.1785,169.6812,0.064,0.000,0.988,0.0000,0.0000,0.0000,0.0000,0.0000,0.0000,0
2026-04-17,14:47:04,18923,1,-7.9840,-2.8311,0.0854,2.5123,10.5000,0,1.0000,-998,1,4.0239,3.0695,-6.2494,21.3894,169.8517,0.128,0.000,0.985,0.0000,0.0000,0.0000,0.0000,0.0000,0.0000,0
2026-04-17,14:47:04,18958,1,-7.9840,-2.4805,0.0994,2.9226,10.5179,0,1.0000,-998,1,4.8955,7.1992,-6.7014,-7.5388,169.6328,0.096,0.000,0.990,0.0000,0.0000,0.0000,0.0000,0.0000,0.0000,0
2026-04-17,14:47:04,18993,1,-7.9840,-2.6316,0.0937,2.7556,10.5371,0,1.0000,-998,1,3.6522,-22.5083,-9.1295,-50.2207,169.7950,0.112,0.000,0.987,0.0000,0.0000,0.0000,0.0000,0.0000,0.0000,0
2026-04-17,14:47:04,19029,1,-7.9840,-2.8281,0.0770,2.2645,10.5585,0,1.0000,-998,1,4.2991,14.5938,-9.7044,-25.4711,169.6164,0.128,0.000,0.984,0.0000,0.0000,0.0000,0.0000,0.0000,0.0000,0
2026-04-17,14:47:04,19065,1,-7.9840,-2.3317,0.0712,2.0945,10.5783,0,1.0000,-998,1,4.2843,-0.3384,-8.1716,25.3561,169.7578,0.096,0.000,0.981,0.0000,0.0000,0.0000,0.0000,0.0000,0.0000,0
2026-04-17,14:47:04,19100,1,-7.9840,-1.9195,0.0597,1.7559,10.5950,0,1.0000,-998,1,4.6305,12.5230,-6.8728,35.0126,169.5447,0.064,0.000,0.978,0.0000,0.0000,0.0000,0.0000,0.0000,0.0000,0
2026-04-17,14:47:04,19136,1,-7.9840,-1.8681,0.0586,1.7243,10.6108,0,1.0000,-998,1,4.5133,-2.9129,-6.0400,27.5389,169.7308,0.032,0.000,0.974,0.0000,0.0000,0.0000,0.0000,0.0000,0.0000,0
2026-04-17,14:47:04,19172,1,-7.9840,-1.5773,0.0458,1.3459,10.6248,0,1.0000,-998,1,4.6808,11.2036,-5.4059,22.2958,169.5316,0.000,0.000,0.971,0.0000,0.0000,0.0000,0.0000,0.0000,0.0000,0
2026-04-17,14:47:04,19208,1,-7.9840,-1.3046,0.0667,1.9616,10.6374,0,1.0000,-998,1,4.4045,-12.3277,-4.4616,27.2036,169.7240,0.000,0.000,0.968,0.0000,0.0000,0.0000,0.0000,0.0000,0.0000,0
2026-04-17,14:47:04,19244,1,-7.9840,-1.6889,0.0647,1.9043,10.6496,0,1.0000,-998,1,3.9134,-9.9297,-4.5066,5.6763,169.5990,0.048,0.000,0.965,0.0000,0.0000,0.0000,0.0000,0.0000,0.0000,0
2026-04-17,14:47:04,19279,1,-7.9840,-1.3939,0.0904,2.6579,10.6614,0,1.0000,-998,1,4.6258,17.5286,-4.1872,11.7357,169.7201,0.040,0.000,0.962,0.0000,0.0000,0.0000,0.0000,0.0000,0.0000,0
2026-04-17,14:47:04,19315,1,-2.4720,-1.0653,0.0499,1.4664,10.6692,0,1.0000,-309,1,4.1799,-21.4654,-4.1439,1.7608,169.6507,0.008,0.000,0.958,0.0000,0.0000,0.0000,0.0000,0.0000,0.0000,0
2026-04-17,14:47:04,19350,1,-2.4720,-1.1401,0.0469,1.3804,10.6779,0,1.0000,-309,1,3.8568,1.4064,-4.9620,-20.4349,169.7085,0.072,0.000,0.955,0.0000,0.0000,0.0000,0.0000,0.0000,0.0000,0
2026-04-17,14:47:04,19385,1,-2.4720,-0.6119,0.0485,1.4251,10.6849,0,1.0000,-309,1,4.9972,29.2930,-7.1606,-52.2924,169.7144,0.040,0.000,0.952,0.0000,0.0000,0.0000,0.0000,0.0000,0.0000,0
2026-04-17,14:47:04,19421,1,4.8720,-0.3916,0.0504,1.4828,10.6887,0,1.0000,609,1,4.5741,-10.5641,-8.5696,-48.7052,169.7639,0.008,0.000,0.958,0.0000,0.0000,0.0000,0.0000,0.0000,0.0000,0
2026-04-17,14:47:04,19456,1,7.3760,6.2045,0.2171,6.3838,10.6556,0,1.0000,922,1,4.3660,-40.8151,-10.7375,-65.8033,169.6769,0.000,0.000,0.981,0.0000,0.0000,0.0000,0.0000,0.0000,0.0000,0
2026-04-17,14:47:04,19492,1,7.9600,7.5256,0.2364,6.9538,10.5988,0,1.0000,995,1,0.0586,-102.7076,-12.8414,-60.2881,169.9271,0.064,0.000,0.978,0.0000,0.0000,0.0000,0.0000,0.0000,0.0000,0
2026-04-17,14:47:04,19527,1,7.9600,8.5962,0.1479,4.3492,10.5363,0,1.0000,995,1,0.7859,35.3686,-12.6094,-14.3977,169.5884,0.128,0.000,0.974,0.0000,0.0000,0.0000,0.0000,0.0000,0.0000,0
2026-04-17,14:47:04,19562,1,7.9600,8.3337,0.0829,2.4391,10.4733,0,1.0000,995,1,4.8772,112.5201,-11.5881,12.7234,169.6189,0.120,0.000,0.971,0.0000,0.0000,0.0000,0.0000,0.0000,0.0000,0
,,19597,1,7.9920,8.0253,0.0712,2.0952,10.4124,0,1.0000,999,1,4.1973,-22.6139,-10.1438,34.9931,163.4162,0.088,0.000,0.977,0.0000,0.0000,0.0000,0.0000,0.0000,0.0000,0
2026-04-17,14:47:04,19633,1,7.9920,7.6932,0.1159,3.4084,10.3519,0,1.0000,999,1,3.2653,-28.9057,-8.2075,51.9420,164.3000,0.056,0.000,0.974,0.0000,0.0000,0.0000,0.0000,0.0000,0.0000,0
2026-04-17,14:47:04,19673,1,7.9920,7.5767,0.1795,5.2800,10.2872,0,1.0000,999,1,1.6747,-32.4483,-7.7600,38.3591,164.7469,0.104,0.000,0.971,0.0000,0.0000,0.0000,0.0000,0.0000,0.0000,0
2026-04-17,14:47:04,19709,1,7.9920,7.6542,0.2305,6.7781,10.2278,0,1.0000,999,1,0.2290,-35.0858,-7.8112,13.2809,165.4588,0.168,0.000,0.968,0.0000,0.0000,0.0000,0.0000,0.0000,0.0000,0
2026-04-17,14:47:04,19745,1,7.9920,7.8349,0.2302,6.7698,10.1681,0,1.0000,999,1,0.4428,23.3732,-7.0591,22.0381,166.2817,0.232,0.000,0.965,0.0000,0.0000,0.0000,0.0000,0.0000,0.0000,0
2026-04-17,14:47:04,19780,1,7.9920,8.0836,0.2194,6.4530,10.1077,0,1.0000,999,1,2.8620,62.2735,-5.9281,29.7102,166.7824,0.200,0.000,0.962,0.0000,0.0000,0.0000,0.0000,0.0000,0.0000,0
2026-04-17,14:47:04,19816,1,7.9920,8.3063,0.1906,5.6057,10.0446,0,1.0000,999,1,2.8858,1.5889,-6.2216,0.3546,167.3536,0.168,0.000,0.958,0.0000,0.0000,0.0000,0.0000,0.0000,0.0000,0
2026-04-17,14:47:04,19852,1,7.9920,7.9204,0.2053,6.0380,9.9832,0,1.0000,999,1,2.5886,1.4565,-7.0189,-11.7164,167.6214,0.136,0.000,0.955,0.0000,0.0000,0.0000,0.0000,0.0000,0.0000,0
2026-04-17,14:47:04,19887,1,7.9920,7.7033,0.2390,7.0288,9.9252,0,1.0000,999,1,3.3063,33.6671,-6.1804,13.9924,168.1913,0.104,0.000,0.952,0.0000,0.0000,0.0000,0.0000,0.0000,0.0000,0
2026-04-17,14:47:05,19923,1,7.9920,7.8533,0.2615,7.6904,9.8650,0,1.0000,999,1,3.9599,9.8347,-5.2559,20.6737,168.6045,0.072,0.000,0.949,0.0000,0.0000,0.0000,0.0000,0.0000,0.0000,0
2026-04-17,14:47:05,19959,1,7.9920,8.1758,0.2410,7.0877,9.8030,0,1.0000,999,1,2.9620,-23.9934,-5.5622,-0.1743,168.4626,0.040,0.000,0.946,0.0000,0.0000,0.0000,0.0000,0.0000,0.0000,0
2026-04-17,14:47:05,19994,1,7.9920,8.2699,0.1822,5.3592,9.7409,0,1.0000,999,1,4.9276,64.4238,-5.3066,6.5027,168.5416,0.008,0.000,0.942,0.0000,0.0000,0.0000,0.0000,0.0000,0.0000,0
2026-04-17,14:47:05,20030,1,7.9920,8.2764,0.1463,4.3016,9.6778,0,1.0000,999,1,7.0096,53.4019,-4.6602,14.2030,168.9402,0.000,0.000,0.974,0.0000,0.0000,0.0000,0.0000,0.0000,0.0000,0
2026-04-17,14:47:05,20065,1,7.9920,7.8180,0.1609,4.7336,9.6170,0,1.0000,999,1,7.7131,25.5983,-4.7671,0.2819,169.1818,0.000,0.000,1.000,0.0000,0.0000,0.0000,0.0000,0.0000,0.0000,0
2026-04-17,14:47:05,20101,1,7.9920,7.6457,0.1979,5.8215,9.5578,0,1.0000,999,1,6.2781,-38.4500,-5.2856,-9.1862,169.2871,0.000,0.000,1.000,0.0000,0.0000,0.0000,0.0000,0.0000,0.0000,0
2026-04-17,14:47:05,20136,1,7.9920,7.7331,0.2593,7.6279,9.5000,0,1.0000,999,1,5.8147,3.2960,-5.1495,0.5652,169.4330,0.000,0.000,1.000,0.0000,0.0000,0.0000,0.0000,0.0000,0.0000,0
2026-04-17,14:47:05,20172,1,7.9920,8.0584,0.2395,7.0445,9.4384,0,1.0000,999,1,7.7134,58.6978,-4.3051,17.1841,169.8403,0.000,0.000,1.000,0.0000,0.0000,0.0000,0.0000,0.0000,0.0000,0
2026-04-17,14:47:05,20207,1,6.7680,8.3320,0.1741,5.1210,9.3771,0,1.0000,846,1,9.1940,51.3452,-3.7735,14.8154,169.8418,0.000,0.000,1.000,0.0000,0.0000,0.0000,0.0000,0.0000,0.0000,0
2026-04-17,14:47:05,20243,1,5.8800,6.4553,0.0827,2.4326,9.3201,0,1.0000,735,1,10.1794,32.2457,-3.8311,4.1298,170.0176,0.000,0.000,1.000,0.0000,0.0000,0.0000,0.0000,0.0000,0.0000,0
2026-04-17,14:47:05,20278,1,5.0800,5.0917,0.1300,3.8221,9.2786,0,1.0000,635,1,10.9890,27.9231,-4.0549,-3.6111,170.0246,0.000,0.000,1.000,0.0000,0.0000,0.0000,0.0000,0.0000,0.0000,0
2026-04-17,14:47:05,20313,1,4.9760,4.6545,0.1742,5.1229,9.2425,0,1.0000,622,1,10.2606,-20.5423,-4.3505,-6.5406,170.1729,0.000,0.000,1.000,0.0000,0.0000,0.0000,0.0000,0.0000,0.0000,0
2026-04-17,14:47:05,20350,1,4.9680,4.8794,0.2010,5.9116,9.2057,0,1.0000,621,1,10.4688,29.4108,-4.4896,-5.8643,170.0744,0.000,0.000,1.000,0.0000,0.0000,0.0000,0.0000,0.0000,0.0000,0
2026-04-17,14:47:05,20385,1,4.9920,5.1872,0.1622,4.7720,9.1674,0,1.0000,624,1,12.1808,46.9810,-4.5816,-4.2488,169.7955,0.000,0.000,1.000,0.0000,0.0000,0.0000,0.0000,0.0000,0.0000,0
2026-04-17,14:47:05,20421,1,5.0240,5.2823,0.1242,3.6526,9.1267,0,1.0000,628,1,14.0632,61.0554,-4.5946,-0.8005,169.6939,0.000,0.000,1.000,0.0000,0.0000,0.0000,0.0000,0.0000,0.0000,0
2026-04-17,14:47:05,20461,1,4.9920,5.1852,0.0925,2.7217,9.0814,0,1.0000,624,1,15.2042,46.6192,-4.4130,2.1575,169.7152,0.000,0.000,1.000,0.0000,0.0000,0.0000,0.0000,0.0000,0.0000,0
2026-04-17,14:47:05,20496,1,4.8800,4.8108,0.1069,3.1436,9.0444,0,1.0000,610,1,15.5088,12.3345,-4.0909,7.0754,169.8073,0.000,0.000,1.000,0.0000,0.0000,0.0000,0.0000,0.0000,0.0000,0
2026-04-17,14:47:05,20532,1,4.8240,4.5032,0.1595,4.6911,9.0092,0,1.0000,603,1,13.9170,-42.0671,-4.1035,2.2748,169.7300,0.000,0.000,1.000,0.0000,0.0000,0.0000,0.0000,0.0000,0.0000,0
2026-04-17,14:47:05,20568,1,4.4640,4.6124,0.1731,5.0924,8.9734,0,1.0000,558,1,14.2352,38.7809,-4.4238,-3.2637,169.9750,0.000,0.000,1.000,0.0000,0.0000,0.0000,0.0000,0.0000,0.0000,0
2026-04-17,14:47:05,20604,1,2.3600,4.2627,0.1058,3.1113,8.9388,0,1.0000,295,1,16.6239,66.0509,-4.1407,4.0860,169.8393,0.000,0.000,1.000,0.0000,0.0000,0.0000,0.0000,0.0000,0.0000,0
2026-04-17,14:47:05,20640,1,1.1120,1.7068,0.0383,1.1255,8.9166,0,1.0000,139,1,18.6423,68.5488,-3.9131,6.3934,169.9783,0.000,0.000,1.000,0.0000,0.0000,0.0000,0.0000,0.0000,0.0000,0
2026-04-17,14:47:05,20676,1,-0.0880,0.1201,0.0279,0.8204,8.9099,0,1.0000,-11,1,21.4500,79.5170,-3.5202,9.1677,170.0098,0.000,0.000,1.000,0.0000,0.0000,0.0000,0.0000,0.0000,0.0000,0
2026-04-17,14:47:05,20713,1,0.0000,-0.1402,0.0534,1.5699,8.9109,0,1.0000,0,1,22.9826,26.0866,-3.0805,11.3374,169.8857,0.000,0.000,1.000,0.0000,0.0000,0.0000,0.0000,0.0000,0.0000,0
2026-04-17,14:47:05,20748,1,0.0000,-0.0125,0.0512,1.5068,8.9112,0,1.0000,0,1,20.3122,-76.1345,-3.1436,3.0650,169.7885,0.000,0.000,1.000,0.0000,0.0000,0.0000,0.0000,0.0000,0.0000,0
2026-04-17,14:47:05,20784,1,0.0000,0.0134,0.0481,1.4145,8.9111,0,1.0000,0,1,19.5976,8.3727,-3.1702,2.7059,169.7607,0.048,0.000,1.000,0.0000,0.0000,0.0000,0.0000,0.0000,0.0000,0
2026-04-17,14:47:05,20820,1,0.0000,0.0089,0.0492,1.4459,8.9110,0,1.0000,0,1,21.3474,46.3492,-2.9296,6.6435,169.7820,0.016,0.000,1.000,0.0000,0.0000,0.0000,0.0000,0.0000,0.0000,0
2026-04-17,14:47:05,20856,1,0.0000,-0.0129,0.0519,1.5264,8.9111,0,1.0000,0,1,22.5446,37.6736,-2.4771,11.4857,169.7230,0.000,0.000,1.000,0.0000,0.0000,0.0000,0.0000,0.0000,0.0000,0
2026-04-17,14:47:05,20891,1,0.0000,0.0101,0.0507,1.4907,8.9112,0,1.0000,0,1,23.5562,28.9911,-2.2558,7.9821,169.8022,0.000,0.000,1.000,0.0000,0.0000,0.0000,0.0000,0.0000,0.0000,0
2026-04-17,14:47:06,20927,1,0.0000,0.0093,0.0505,1.4866,8.9112,0,1.0000,0,1,24.1509,22.3308,-2.2015,3.4715,169.7623,0.000,0.000,1.000,0.0000,0.0000,0.0000,0.0000,0.0000,0.0000,0
2026-04-17,14:47:06,20963,1,0.0000,0.0234,0.0485,1.4252,8.9111,0,1.0000,0,1,24.9157,23.2207,-2.3154,-1.2699,169.8104,0.000,0.000,1.000,0.0000,0.0000,0.0000,0.0000,0.0000,0.0000,0
2026-04-17,14:47:06,20998,1,0.0000,0.0281,0.0446,1.3110,8.9109,0,1.0000,0,1,25.3538,15.8055,-2.3907,-1.9139,169.8141,0.000,0.000,1.000,0.0000,0.0000,0.0000,0.0000,0.0000,0.0000,0
2026-04-17,14:47:06,21034,1,0.0000,0.0175,0.0414,1.2175,8.9107,0,1.0000,0,1,26.0089,21.3477,-2.4230,-1.5117,169.7867,0.000,0.000,1.000,0.0000,0.0000,0.0000,0.0000,0.0000,0.0000,0
