Date,Time,Timestamp_ms,Kite_ID,Commanded_Vel_rps,Actual_Vel_rps,Torque_Nm,Tension_N,Line_Length_m,Target_Enabled,Target_Length_m,Remote_Joy,Remote_Active,Pitch_deg,Pitch_Vel_dps,Yaw_deg,Yaw_Vel_dps,Roll_deg,Dive_Conf,AWW_Conf,AF_Conf,Kite_Pitch_deg,Kite_Roll_deg,Kite_Yaw_deg,Kite_Gyro_X,Kite_Gyro_Y,Kite_Gyro_Z,Kite_IMU_Battery
2026-04-17,14:48:09,0,1,1.4000,1.3018,0.0573,1.6860,3.7490,0,1.0000,175,1,10.4127,-12.5549,18.4842,3.4925,168.8307,0.000,0.000,0.536,0.0000,0.0000,0.0000,0.0000,0.0000,0.0000,0
2026-04-17,14:48:09,1,1,1.4000,1.4060,0.0663,1.9489,3.7384,0,1.0000,175,1,9.4590,-28.4116,18.5193,1.5501,168.6346,0.048,0.000,0.568,0.0000,0.0000,0.0000,0.0000,0.0000,0.0000,0
2026-04-17,14:48:09,2,1,1.3760,1.3166,0.0853,2.5077,3.7273,0,1.0000,172,1,9.6183,16.0553,18.5771,2.4044,168.8503,0.112,0.000,0.600,0.0000,0.0000,0.0000,0.0000,0.0000,0.0000,0
2026-04-17,14:48:09,3,1,1.3760,1.2740,0.0902,2.6542,3.7166,0,1.0000,172,1,10.2025,12.2180,18.7177,2.3007,168.6105,0.080,0.000,0.632,0.0000,0.0000,0.0000,0.0000,0.0000,0.0000,0
2026-04-17,14:48:09,3,1,1.3760,1.3718,0.0883,2.5979,3.7062,0,1.0000,172,1,10.1984,0.3138,18.3626,-5.9475,168.8121,0.048,0.000,0.664,0.0000,0.0000,0.0000,0.0000,0.0000,0.0000,0
2026-04-17,14:48:09,4,1,1.3840,1.4899,0.0834,2.4531,3.6949,0,1.0000,173,1,9.9800,-2.8121,18.2018,-5.0179,168.7679,0.016,0.000,0.696,0.0000,0.0000,0.0000,0.0000,0.0000,0.0000,0
2026-04-17,14:48:09,4,1,1.3840,1.1749,0.1104,3.2473,3.6852,0,1.0000,173,1,10.2335,7.5264,18.0785,-4.2597,168.7360,0.000,0.000,0.728,0.0000,0.0000,0.0000,0.0000,0.0000,0.0000,0
2026-04-17,14:48:09,6,1,1.3840,1.3297,0.1144,3.3643,3.6737,0,1.0000,173,1,10.5203,4.3273,17.6830,-8.6231,168.8242,0.000,0.000,0.760,0.0000,0.0000,0.0000,0.0000,0.0000,0.0000,0
2026-04-17,14:48:09,7,1,1.3840,1.4898,0.1062,3.1236,3.6618,0,1.0000,173,1,10.6694,10.6647,17.3551,-9.3121,168.9028,0.000,0.000,0.792,0.0000,0.0000,0.0000,0.0000,0.0000,0.0000,0
2026-04-17,14:48:09,8,1,1.3840,1.3538,0.1201,3.5333,3.6506,0,1.0000,173,1,10.9271,8.0114,17.0710,-8.8963,168.8952,0.000,0.000,0.824,0.0000,0.0000,0.0000,0.0000,0.0000,0.0000,0
2026-04-17,14:48:09,9,1,1.3760,1.2569,0.1340,3.9420,3.6394,0,1.0000,172,1,11.3930,13.3738,16.8327,-7.1187,168.9408,0.000,0.000,0.856,0.0000,0.0000,0.0000,0.0000,0.0000,0.0000,0
2026-04-17,14:48:09,9,1,1.3840,1.3679,0.1220,3.5886,3.6277,0,1.0000,173,1,11.2274,3.1529,16.8472,-4.7264,168.9211,0.000,0.000,0.880,0.0000,0.0000,0.0000,0.0000,0.0000,0.0000,0
2026-04-17,14:48:09,10,1,1.3680,1.3505,0.1362,4.0057,3.6164,0,1.0000,171,1,11.4431,4.9011,16.8267,-3.3629,168.9535,0.000,0.000,0.904,0.0000,0.0000,0.0000,0.0000,0.0000,0.0000,0
2026-04-17,14:48:09,10,1,1.3680,1.1777,0.1729,5.0862,3.6073,0,1.0000,171,1,11.4498,1.8770,16.8405,-2.1819,168.8735,0.000,0.000,0.928,0.0000,0.0000,0.0000,0.0000,0.0000,0.0000,0
2026-04-17,14:48:09,11,1,1.3680,1.0769,0.1974,5.8049,3.5966,0,1.0000,171,1,11.2102,-2.9380,16.8212,-1.6332,168.9409,0.000,0.000,0.952,0.0000,0.0000,0.0000,0.0000,0.0000,0.0000,0
2026-04-17,14:48:09,12,1,1.3520,1.4683,0.1944,5.7163,3.5861,0,1.0000,169,1,10.7865,-10.4826,16.8864,-0.4794,168.9393,0.000,0.000,0.976,0.0000,0.0000,0.0000,0.0000,0.0000,0.0000,0
2026-04-17,14:48:09,13,1,1.3520,1.8143,0.0824,2.4231,3.5706,0,1.0000,169,1,12.1230,17.3007,17.1113,1.5231,168.9744,0.000,0.000,1.000,0.0000,0.0000,0.0000,0.0000,0.0000,0.0000,0
2026-04-17,14:48:09,13,1,1.3520,1.1708,0.1513,4.4503,3.5613,0,1.0000,169,1,10.0970,-26.9309,17.2528,2.2656,168.9577,0.000,0.000,1.000,0.0000,0.0000,0.0000,0.0000,0.0000,0.0000,0
2026-04-17,14:48:09,14,1,0.9840,1.6046,0.0769,2.2623,3.5467,0,1.0000,123,1,10.3549,-0.5822,17.4591,3.1482,169.2107,0.048,0.000,1.000,0.0000,0.0000,0.0000,0.0000,0.0000,0.0000,0
2026-04-17,14:48:09,15,1,0.9840,1.2572,0.0360,1.0599,3.5364,0,1.0000,123,1,11.7871,18.3893,18.1901,8.5484,169.1203,0.048,0.000,1.000,0.0000,0.0000,0.0000,0.0000,0.0000,0.0000,0
2026-04-17,14:48:09,16,1,0.9840,0.9573,0.0545,1.6036,3.5287,0,1.0000,123,1,12.9701,28.9936,19.0191,10.0809,169.4416,0.024,0.000,1.000,0.0000,0.0000,0.0000,0.0000,0.0000,0.0000,0
2026-04-17,14:48:09,17,1,0.7520,0.6161,0.0535,1.5747,3.5210,0,1.0000,94,1,13.8602,13.6532,18.7235,-0.3818,169.0703,0.000,0.000,1.000,0.0000,0.0000,0.0000,0.0000,0.0000,0.0000,0
2026-04-17,14:48:09,45,1,0.7520,0.6391,0.0615,1.8074,3.5156,0,1.0000,94,1,13.4717,-14.7340,18.8440,-1.4804,169.0184,0.000,0.000,1.000,0.0000,0.0000,0.0000,0.0000,0.0000,0.0000,0
2026-04-17,14:48:09,46,1,0.7120,0.7046,0.0615,1.8096,3.5100,0,1.0000,89,1,10.8074,-72.7795,18.0705,-12.8372,168.8854,0.048,0.000,1.000,0.0000,0.0000,0.0000,0.0000,0.0000,0.0000,0
2026-04-17,14:48:09,47,1,0.7040,0.6707,0.0676,1.9876,3.5046,0,1.0000,88,1,10.1063,-4.2543,17.9315,-6.9263,169.1186,0.112,0.000,1.000,0.0000,0.0000,0.0000,0.0000,0.0000,0.0000,0
2026-04-17,14:48:09,48,1,0.7040,0.7043,0.0628,1.8469,3.4989,0,1.0000,88,1,11.6255,36.7776,17.8599,-3.0931,169.2101,0.152,0.000,1.000,0.0000,0.0000,0.0000,0.0000,0.0000,0.0000,0
2026-04-17,14:48:09,49,1,0.6160,0.6319,0.0656,1.9292,3.4934,0,1.0000,77,1,13.0373,35.8611,18.0424,0.9926,169.1207,0.120,0.000,1.000,0.0000,0.0000,0.0000,0.0000,0.0000,0.0000,0
2026-04-17,14:48:09,50,1,0.6160,0.7307,0.0670,1.9705,3.4887,0,1.0000,77,1,13.0285,-0.5060,17.7414,-4.1144,169.1745,0.088,0.000,1.000,0.0000,0.0000,0.0000,0.0000,0.0000,0.0000,0
2026-04-17,14:48:09,51,1,0.6160,0.8121,0.0452,1.3280,3.4822,0,1.0000,77,1,12.5587,-10.9856,17.5451,-5.9200,169.0933,0.056,0.000,1.000,0.0000,0.0000,0.0000,0.0000,0.0000,0.0000,0
2026-04-17,14:48:09,51,1,0.3440,0.5945,0.0104,0.3058,3.4760,0,1.0000,43,1,13.0202,16.3729,17.4450,-3.5423,169.1156,0.024,0.000,1.000,0.0000,0.0000,0.0000,0.0000,0.0000,0.0000,0
2026-04-17,14:48:09,52,1,0.3440,0.3462,0.0379,1.1144,3.4739,0,1.0000,43,1,16.2553,71.9364,17.8083,3.4558,168.9508,0.000,0.000,1.000,0.0000,0.0000,0.0000,0.0000,0.0000,0.0000,0
2026-04-17,14:48:09,53,1,0.1360,0.2510,0.0386,1.1357,3.4707,0,1.0000,17,1,17.3127,28.2381,17.8718,1.8264,168.8602,0.000,0.000,1.000,0.0000,0.0000,0.0000,0.0000,0.0000,0.0000,0
2026-04-17,14:48:09,54,1,0.1360,0.2981,0.0222,0.6522,3.4690,0,1.0000,17,1,16.5953,-21.9381,17.7530,-0.8816,169.0489,0.000,0.000,1.000,0.0000,0.0000,0.0000,0.0000,0.0000,0.0000,0
2026-04-17,14:48:09,54,1,0.1360,0.1015,0.0284,0.8346,3.4677,0,1.0000,17,1,15.6186,-26.7293,17.8413,0.7366,168.8843,0.016,0.000,1.000,0.0000,0.0000,0.0000,0.0000,0.0000,0.0000,0
2026-04-17,14:48:09,55,1,0.0960,0.1665,0.0168,0.4936,3.4662,0,1.0000,12,1,14.8352,-21.5695,17.6586,-2.8477,169.0044,0.000,0.000,1.000,0.0000,0.0000,0.0000,0.0000,0.0000,0.0000,0
2026-04-17,14:48:09,55,1,0.0960,0.1375,0.0159,0.4670,3.4653,0,1.0000,12,1,13.9588,-21.5701,17.6345,-1.4965,168.8529,0.000,0.000,1.000,0.0000,0.0000,0.0000,0.0000,0.0000,0.0000,0
2026-04-17,14:48:09,56,1,0.0960,0.0654,0.0205,0.6041,3.4646,0,1.0000,12,1,12.0644,-54.2362,17.5540,-1.2336,168.9625,0.000,0.000,1.000,0.0000,0.0000,0.0000,0.0000,0.0000,0.0000,0
2026-04-17,14:48:09,57,1,-0.1280,-0.0393,0.0073,0.2145,3.4642,0,1.0000,-16,1,9.8515,-48.1726,17.7878,4.7178,168.9283,0.000,0.000,0.999,0.0000,0.0000,0.0000,0.0000,0.0000,0.0000,0
2026-04-17,14:48:09,59,1,-0.1280,0.0010,0.0102,0.3008,3.4641,0,1.0000,-16,1,10.2581,10.1576,18.1908,9.8972,168.8946,0.000,0.000,1.000,0.0000,0.0000,0.0000,0.0000,0.0000,0.0000,0
2026-04-17,14:48:09,60,1,-0.1520,0.0063,0.0113,0.3334,3.4642,0,1.0000,-19,1,11.4713,30.0539,18.7896,13.7068,168.8018,0.000,0.000,1.000,0.0000,0.0000,0.0000,0.0000,0.0000,0.0000,0
2026-04-17,14:48:09,60,1,-0.1520,-0.0070,0.0126,0.3693,3.4642,0,1.0000,-19,1,12.5686,28.9263,19.2296,13.3734,168.9178,0.000,0.000,1.000,0.0000,0.0000,0.0000,0.0000,0.0000,0.0000,0
2026-04-17,14:48:09,61,1,-0.1520,-0.0080,0.0124,0.3655,3.4642,0,1.0000,-19,1,12.9057,4.3898,19.6827,12.8877,168.7743,0.000,0.000,1.000,0.0000,0.0000,0.0000,0.0000,0.0000,0.0000,0
2026-04-17,14:48:09,61,1,-0.1520,-0.0421,0.0136,0.4005,3.4643,0,1.0000,-19,1,11.8870,-30.0453,19.8765,7.4887,168.9328,0.000,0.000,1.000,0.0000,0.0000,0.0000,0.0000,0.0000,0.0000,0
2026-04-17,14:48:09,62,1,-0.1520,-0.0029,0.0115,0.3375,3.4643,0,1.0000,-19,1,9.1083,-64.0695,19.6997,0.2595,168.8822,0.000,0.000,1.000,0.0000,0.0000,0.0000,0.0000,0.0000,0.0000,0
2026-04-17,14:48:09,63,1,-0.1520,-0.0031,0.0115,0.3373,3.4642,0,1.0000,-19,1,9.1954,14.5218,19.6169,-0.6997,168.9819,0.000,0.000,1.000,0.0000,0.0000,0.0000,0.0000,0.0000,0.0000,0
2026-04-17,14:48:10,96,1,-0.1360,0.0002,0.0120,0.3538,3.4642,0,1.0000,-17,1,10.4337,32.1967,19.7702,2.0146,168.7664,0.000,0.000,1.000,0.0000,0.0000,0.0000,0.0000,0.0000,0.0000,0
2026-04-17,14:48:10,97,1,-0.1360,-0.0171,0.0148,0.4342,3.4643,0,1.0000,-17,1,11.8360,30.9052,19.7965,1.0819,168.9750,0.000,0.000,1.000,0.0000,0.0000,0.0000,0.0000,0.0000,0.0000,0
2026-04-17,14:48:10,97,1,0.0560,-0.0014,0.0131,0.3845,3.4643,0,1.0000,7,1,12.1925,13.5178,19.8319,0.7337,168.8483,0.000,0.000,1.000,0.0000,0.0000,0.0000,0.0000,0.0000,0.0000,0
2026-04-17,14:48:10,98,1,0.0560,0.0180,0.0212,0.6241,3.4642,0,1.0000,7,1,12.9601,21.9400,19.8340,0.3194,168.9595,0.000,0.000,1.000,0.0000,0.0000,0.0000,0.0000,0.0000,0.0000,0
2026-04-17,14:48:10,98,1,0.0560,0.0173,0.0252,0.7406,3.4641,0,1.0000,7,1,13.4302,14.5856,19.8758,0.5373,168.8110,0.000,0.000,1.000,0.0000,0.0000,0.0000,0.0000,0.0000,0.0000,0
2026-04-17,14:48:10,99,1,0.2720,0.0994,0.0449,1.3211,3.4638,0,1.0000,34,1,13.6953,4.5358,19.8009,-1.1879,168.9644,0.000,0.000,1.000,0.0000,0.0000,0.0000,0.0000,0.0000,0.0000,0
2026-04-17,14:48:10,100,1,0.2720,0.2087,0.0518,1.5239,3.4621,0,1.0000,34,1,13.1417,-9.7046,19.6941,-2.7018,168.8397,0.000,0.000,1.000,0.0000,0.0000,0.0000,0.0000,0.0000,0.0000,0
2026-04-17,14:48:10,101,1,0.2800,0.2892,0.0474,1.3955,3.4600,0,1.0000,35,1,12.5986,-11.6163,19.2759,-8.3149,168.9337,0.000,0.000,1.000,0.0000,0.0000,0.0000,0.0000,0.0000,0.0000,0
2026-04-17,14:48:10,102,1,0.4000,0.2551,0.0659,1.9375,3.4575,0,1.0000,50,1,12.6692,10.3598,18.8884,-10.2267,168.8567,0.016,0.000,1.000,0.0000,0.0000,0.0000,0.0000,0.0000,0.0000,0
2026-04-17,14:48:10,103,1,0.4000,0.4708,0.0535,1.5731,3.4540,0,1.0000,50,1,12.8452,3.1306,18.3556,-12.6860,168.8581,0.000,0.000,1.000,0.0000,0.0000,0.0000,0.0000,0.0000,0.0000,0
2026-04-17,14:48:10,104,1,0.5840,0.4330,0.0532,1.5639,3.4505,0,1.0000,73,1,13.1625,9.0965,18.0295,-11.0382,168.8577,0.000,0.000,1.000,0.0000,0.0000,0.0000,0.0000,0.0000,0.0000,0
2026-04-17,14:48:10,104,1,0.5840,0.5668,0.0514,1.5112,3.4460,0,1.0000,73,1,13.6374,11.1291,17.6477,-11.8830,168.8261,0.000,0.000,1.000,0.0000,0.0000,0.0000,0.0000,0.0000,0.0000,0
2026-04-17,14:48:10,105,1,0.5840,0.6666,0.0618,1.8189,3.4419,0,1.0000,73,1,14.1628,20.0226,17.2086,-12.5358,168.8697,0.000,0.000,1.000,0.0000,0.0000,0.0000,0.0000,0.0000,0.0000,0
2026-04-17,14:48:10,106,1,0.6400,0.6615,0.0609,1.7910,3.4368,0,1.0000,80,1,14.3581,7.5808,16.8260,-11.2588,168.8136,0.000,0.000,1.000,0.0000,0.0000,0.0000,0.0000,0.0000,0.0000,0
2026-04-17,14:48:10,107,1,0.6400,0.5604,0.0630,1.8537,3.4317,0,1.0000,80,1,14.6545,10.0183,16.5206,-10.1116,168.9231,0.000,0.000,1.000,0.0000,0.0000,0.0000,0.0000,0.0000,0.0000,0
2026-04-17,14:48:10,107,1,0.6400,0.5896,0.0722,2.1229,3.4269,0,1.0000,80,1,15.1939,14.3055,16.3013,-8.2322,168.8205,0.000,0.000,1.000,0.0000,0.0000,0.0000,0.0000,0.0000,0.0000,0
2026-04-17,14:48:10,108,1,0.6960,0.7078,0.0624,1.8350,3.4216,0,1.0000,87,1,15.3158,3.1247,16.0751,-7.5574,168.8678,0.000,0.000,1.000,0.0000,0.0000,0.0000,0.0000,0.0000,0.0000,0
2026-04-17,14:48:10,108,1,0.6960,0.6521,0.0617,1.8144,3.4160,0,1.0000,87,1,15.2785,-0.6320,15.9708,-4.0920,168.9627,0.000,0.000,1.000,0.0000,0.0000,0.0000,0.0000,0.0000,0.0000,0
2026-04-17,14:48:10,109,1,0.0000,-0.0060,0.0162,0.4754,3.2162,0,1.0000,0,0,0.4576,-0.2430,26.0149,0.4061,168.6838,0.000,0.000,0.826,0.0000,0.0000,0.0000,0.0000,0.0000,0.0000,0
2026-04-17,14:48:10,110,1,0.0000,0.0017,0.0161,0.4732,3.2162,0,1.0000,0,0,0.4392,0.0980,26.8251,1.0709,168.7985,0.000,0.000,0.598,0.0000,0.0000,0.0000,0.0000,0.0000,0.0000,0
2026-04-17,14:48:10,111,1,0.0000,0.0089,0.0156,0.4581,3.2162,0,1.0000,0,0,0.4443,0.1531,26.8605,1.0371,168.7889,0.000,0.000,0.595,0.0000,0.0000,0.0000,0.0000,0.0000,0.0000,0
2026-04-17,14:48:10,112,1,0.0000,-0.0003,0.0162,0.4753,3.2162,0,1.0000,0,0,0.4454,0.0993,26.8760,0.9104,168.7970,0.000,0.000,0.594,0.0000,0.0000,0.0000,0.0000,0.0000,0.0000,0
2026-04-17,14:48:10,137,1,0.0000,-0.0098,0.0162,0.4775,3.2162,0,1.0000,0,0,0.4481,-0.1810,26.8180,-0.9857,168.7946,0.000,0.000,0.590,0.0000,0.0000,0.0000,0.0000,0.0000,0.0000,0
2026-04-17,14:48:10,177,1,0.0000,-0.0035,0.0151,0.4431,3.2162,0,1.0000,0,0,0.4464,0.4933,26.7930,-1.2990,168.7935,0.000,0.000,0.588,0.0000,0.0000,0.0000,0.0000,0.0000,0.0000,0
2026-04-17,14:48:10,212,1,0.0000,0.0130,0.0150,0.4409,3.2162,0,1.0000,0,0,0.4634,0.5796,26.6166,-4.5869,168.7995,0.000,0.000,0.585,0.0000,0.0000,0.0000,0.0000,0.0000,0.0000,0
2026-04-17,14:48:10,247,1,0.0000,-0.0003,0.0158,0.4646,3.2162,0,1.0000,0,0,0.4866,0.6789,26.3743,-6.3923,168.7957,0.000,0.000,0.582,0.0000,0.0000,0.0000,0.0000,0.0000,0.0000,0
2026-04-17,14:48:10,283,1,0.0000,0.0051,0.0152,0.4474,3.2162,0,1.0000,0,0,0.4880,0.0871,26.2159,-5.6125,168.8023,0.000,0.000,0.578,0.0000,0.0000,0.0000,0.0000,0.0000,0.0000,0
2026-04-17,14:48:10,318,1,0.0000,0.0054,0.0157,0.4624,3.2162,0,1.0000,0,0,0.4989,0.6698,26.0431,-5.5111,168.8024,0.000,0.000,0.575,0.0000,0.0000,0.0000,0.0000,0.0000,0.0000,0
2026-04-17,14:48:10,354,1,0.0000,-0.0142,0.0159,0.4690,3.2162,0,1.0000,0,0,0.4942,0.2727,26.0034,-2.7728,168.7978,0.000,0.000,0.572,0.0000,0.0000,0.0000,0.0000,0.0000,0.0000,0
2026-04-17,14:48:10,389,1,0.0000,0.0057,0.0150,0.4409,3.2162,0,1.0000,0,0,0.4946,0.1635,26.1171,1.4242,168.7726,0.000,0.000,0.569,0.0000,0.0000,0.0000,0.0000,0.0000,0.0000,0
2026-04-17,14:48:10,424,1,0.0000,-0.0011,0.0143,0.4194,3.2162,0,1.0000,0,0,0.5047,0.0556,26.2059,2.3477,168.7657,0.000,0.000,0.566,0.0000,0.0000,0.0000,0.0000,0.0000,0.0000,0
2026-04-17,14:48:10,459,1,0.0000,0.0021,0.0153,0.4495,3.2162,0,1.0000,0,0,0.5040,-0.2947,26.2440,1.1613,168.7378,0.000,0.000,0.562,0.0000,0.0000,0.0000,0.0000,0.0000,0.0000,0
2026-04-17,14:48:10,494,1,0.0000,-0.0224,0.0162,0.4754,3.2162,0,1.0000,0,0,0.4960,-0.2770,26.1601,-1.3473,168.7386,0.000,0.000,0.559,0.0000,0.0000,0.0000,0.0000,0.0000,0.0000,0
2026-04-17,14:48:10,529,1,0.0000,-0.0100,0.0152,0.4474,3.2162,0,1.0000,0,0,0.4995,0.1961,26.0122,-3.3619,168.7464,0.000,0.000,0.556,0.0000,0.0000,0.0000,0.0000,0.0000,0.0000,0
2026-04-17,14:48:10,565,1,0.0000,0.0049,0.0167,0.4904,3.2162,0,1.0000,0,0,0.5136,0.4829,25.9127,-3.0931,168.7412,0.000,0.000,0.553,0.0000,0.0000,0.0000,0.0000,0.0000,0.0000,0
2026-04-17,14:48:10,600,1,0.0000,-0.0042,0.0157,0.4624,3.2162,0,1.0000,0,0,0.5049,0.2360,25.8575,-1.8920,168.7507,0.000,0.000,0.550,0.0000,0.0000,0.0000,0.0000,0.0000,0.0000,0
2026-04-17,14:48:10,635,1,0.0000,-0.0027,0.0156,0.4581,3.2162,0,1.0000,0,0,0.4973,-0.2792,25.9519,1.1981,168.7474,0.000,0.000,0.546,0.0000,0.0000,0.0000,0.0000,0.0000,0.0000,0
2026-04-17,14:48:10,670,1,0.0000,0.0025,0.0148,0.4366,3.2162,0,1.0000,0,0,0.4941,-0.2359,26.0172,1.6312,168.7496,0.000,0.000,0.543,0.0000,0.0000,0.0000,0.0000,0.0000,0.0000,0
2026-04-17,14:48:10,705,1,0.0000,0.0055,0.0151,0.4452,3.2162,0,1.0000,0,0,0.4887,-0.1200,26.1480,3.3339,168.7708,0.000,0.000,0.540,0.0000,0.0000,0.0000,0.0000,0.0000,0.0000,0
2026-04-17,14:48:10,740,1,0.0000,-0.0018,0.0156,0.4581,3.2162,0,1.0000,0,0,0.4886,0.1207,26.2014,2.1378,168.7612,0.000,0.000,0.537,0.0000,0.0000,0.0000,0.0000,0.0000,0.0000,0
2026-04-17,14:48:10,776,1,0.0000,0.0009,0.0140,0.4108,3.2162,0,1.0000,0,0,0.4867,-0.0269,26.1884,-0.0986,168.7439,0.000,0.000,0.534,0.0000,0.0000,0.0000,0.0000,0.0000,0.0000,0
2026-04-17,14:48:10,811,1,0.0000,-0.0087,0.0148,0.4366,3.2162,0,1.0000,0,0,0.4876,0.3926,26.0184,-3.5008,168.7525,0.000,0.000,0.530,0.0000,0.0000,0.0000,0.0000,0.0000,0.0000,0
2026-04-17,14:48:10,847,1,0.0000,-0.0109,0.0154,0.4539,3.2162,0,1.0000,0,0,0.5140,1.2310,26.0400,-0.5734,168.7525,0.000,0.000,0.527,0.0000,0.0000,0.0000,0.0000,0.0000,0.0000,0
2026-04-17,14:48:10,883,1,0.0000,0.0056,0.0152,0.4474,3.2162,0,1.0000,0,0,0.5169,-0.1817,26.1578,2.3354,168.7377,0.000,0.000,0.524,0.0000,0.0000,0.0000,0.0000,0.0000,0.0000,0
2026-04-17,14:48:10,918,1,0.0000,-0.0218,0.0152,0.4474,3.2162,0,1.0000,0,0,0.5114,0.2867,26.3326,4.0261,168.7425,0.000,0.000,0.521,0.0000,0.0000,0.0000,0.0000,0.0000,0.0000,0
2026-04-17,14:48:10,953,1,0.0000,-0.0125,0.0163,0.4796,3.2162,0,1.0000,0,0,0.5112,0.1212,26.3530,1.7140,168.7321,0.000,0.000,0.518,0.0000,0.0000,0.0000,0.0000,0.0000,0.0000,0
2026-04-17,14:48:10,993,1,0.0000,-0.0052,0.0159,0.4667,3.2162,0,1.0000,0,0,0.5058,0.2987,26.3371,0.4848,168.7281,0.000,0.000,0.515,0.0000,0.0000,0.0000,0.0000,0.0000,0.0000,0
2026-04-17,14:48:10,1028,1,0.0000,0.0078,0.0152,0.4474,3.2162,0,1.0000,0,0,0.4830,-1.0231,26.2837,-0.5970,168.7365,0.000,0.000,0.512,0.0000,0.0000,0.0000,0.0000,0.0000,0.0000,0
2026-04-17,14:48:10,1063,1,0.0000,-0.0155,0.0164,0.4819,3.2162,0,1.0000,0,0,0.4706,-0.1754,26.3406,0.7187,168.7478,0.000,0.000,0.509,0.0000,0.0000,0.0000,0.0000,0.0000,0.0000,0
2026-04-17,14:48:11,1099,1,0.0000,0.0042,0.0156,0.4581,3.2162,0,1.0000,0,0,0.4696,-0.2124,26.2089,-2.7647,168.7496,0.000,0.000,0.506,0.0000,0.0000,0.0000,0.0000,0.0000,0.0000,0
2026-04-17,14:48:11,1134,1,0.0000,0.0036,0.0153,0.4495,3.2162,0,1.0000,0,0,0.4802,0.2748,26.0277,-4.8254,168.7376,0.000,0.000,0.502,0.0000,0.0000,0.0000,0.0000,0.0000,0.0000,0
2026-04-17,14:48:11,1169,1,0.0000,-0.0101,0.0162,0.4754,3.2162,0,1.0000,0,0,0.4864,0.0832,25.8790,-4.5045,168.7401,0.000,0.000,0.499,0.0000,0.0000,0.0000,0.0000,0.0000,0.0000,0
2026-04-17,14:48:11,1204,1,0.0000,-0.0018,0.0146,0.4302,3.2162,0,1.0000,0,0,0.4952,0.1871,25.8617,-1.8590,168.7276,0.000,0.000,0.496,0.0000,0.0000,0.0000,0.0000,0.0000,0.0000,0
2026-04-17,14:48:11,1239,1,0.0000,0.0013,0.0156,0.4581,3.2162,0,1.0000,0,0,0.5027,0.1209,25.8351,-1.2758,168.7126,0.000,0.000,0.493,0.0000,0.0000,0.0000,0.0000,0.0000,0.0000,0
2026-04-17,14:48:11,1274,1,0.0000,0.0049,0.0154,0.4538,3.2162,0,1.0000,0,0,0.5051,0.7024,25.7939,-1.7652,168.7074,0.000,0.000,0.490,0.0000,0.0000,0.0000,0.0000,0.0000,0.0000,0
2026-04-17,14:48:11,1309,1,0.0000,-0.0003,0.0146,0.4302,3.2162,0,1.0000,0,0,0.4716,-1.8712,25.7580,-0.9404,168.7222,0.000,0.000,0.486,0.0000,0.0000,0.0000,0.0000,0.0000,0.0000,0
2026-04-17,14:48:11,1344,1,0.0000,-0.0032,0.0154,0.4517,3.2162,0,1.0000,0,0,0.4912,0.4321,25.7493,-0.8904,168.7301,0.000,0.000,0.483,0.0000,0.0000,0.0000,0.0000,0.0000,0.0000,0
2026-04-17,14:48:11,1379,1,0.0000,0.0259,0.0147,0.4324,3.2162,0,1.0000,0,0,0.4978,0.1490,25.6475,-2.6428,168.7356,0.000,0.000,0.480,0.0000,0.0000,0.0000,0.0000,0.0000,0.0000,0
2026-04-17,14:48:11,1414,1,0.0000,-0.0012,0.0145,0.4258,3.2162,0,1.0000,0,0,0.4894,-0.0317,25.6267,-1.0494,168.7403,0.000,0.000,0.477,0.0000,0.0000,0.0000,0.0000,0.0000,0.0000,0
2026-04-17,14:48:11,1449,1,0.0000,0.0021,0.0143,0.4194,3.2162,0,1.0000,0,0,0.5109,0.9526,25.6874,0.6752,168.7170,0.000,0.000,0.474,0.0000,0.0000,0.0000,0.0000,0.0000,0.0000,0
2026-04-17,14:48:11,1484,1,0.0000,-0.0007,0.0158,0.4646,3.2162,0,1.0000,0,0,0.4760,-1.1286,25.7716,2.1827,168.7588,0.000,0.000,0.470,0.0000,0.0000,0.0000,0.0000,0.0000,0.0000,0
2026-04-17,14:48:11,1519,1,0.0000,-0.0019,0.0152,0.4474,3.2162,0,1.0000,0,0,0.4821,0.3524,25.8031,1.1870,168.7267,0.000,0.000,0.467,0.0000,0.0000,0.0000,0.0000,0.0000,0.0000,0
2026-04-17,14:48:11,1554,1,0.0000,0.0031,0.0157,0.4624,3.2162,0,1.0000,0,0,0.5143,0.9763,25.8180,1.0887,168.7287,0.000,0.000,0.464,0.0000,0.0000,0.0000,0.0000,0.0000,0.0000,0
2026-04-17,14:48:11,1589,1,0.0000,0.0004,0.0144,0.4237,3.2162,0,1.0000,0,0,0.4868,-0.3532,25.8706,1.0748,168.7486,0.000,0.000,0.461,0.0000,0.0000,0.0000,0.0000,0.0000,0.0000,0
2026-04-17,14:48:11,1625,1,0.0000,-0.0053,0.0154,0.4538,3.2162,0,1.0000,0,0,0.5076,0.5274,25.7105,-3.3139,168.7141,0.000,0.000,0.458,0.0000,0.0000,0.0000,0.0000,0.0000,0.0000,0
2026-04-17,14:48:11,1660,1,0.0000,0.0031,0.0157,0.4624,3.2162,0,1.0000,0,0,0.4926,-0.6969,25.6440,-2.0662,168.7380,0.000,0.000,0.454,0.0000,0.0000,0.0000,0.0000,0.0000,0.0000,0
2026-04-17,14:48:11,1696,1,0.0000,0.0025,0.0157,0.4624,3.2162,0,1.0000,0,0,0.5042,1.0805,25.7283,0.8499,168.7245,0.000,0.000,0.451,0.0000,0.0000,0.0000,0.0000,0.0000,0.0000,0
2026-04-17,14:48:11,1731,1,0.0000,0.0051,0.0152,0.4474,3.2162,0,1.0000,0,0,0.5234,0.4229,25.6836,-0.8436,168.7178,0.000,0.000,0.448,0.0000,0.0000,0.0000,0.0000,0.0000,0.0000,0
2026-04-17,14:48:11,1766,1,0.0000,0.0025,0.0146,0.4302,3.2162,0,1.0000,0,0,0.4941,-0.3655,25.5346,-3.3932,168.7125,0.000,0.000,0.445,0.0000,0.0000,0.0000,0.0000,0.0000,0.0000,0
2026-04-17,14:48:11,1807,1,0.0000,0.0006,0.0158,0.4646,3.2162,0,1.0000,0,0,0.4954,-0.2644,25.4449,-3.8987,168.6763,0.000,0.000,0.442,0.0000,0.0000,0.0000,0.0000,0.0000,0.0000,0
2026-04-17,14:48:11,1843,1,0.0000,0.0014,0.0161,0.4732,3.2162,0,1.0000,0,0,0.4757,-1.1141,25.1204,-6.9513,168.7569,0.000,0.000,0.439,0.0000,0.0000,0.0000,0.0000,0.0000,0.0000,0
2026-04-17,14:48:11,1878,1,0.0000,0.0013,0.0145,0.4259,3.2162,0,1.0000,0,0,0.5106,2.2273,25.2968,1.0149,168.9099,0.000,0.000,0.436,0.0000,0.0000,0.0000,0.0000,0.0000,0.0000,0
2026-04-17,14:48:11,1913,1,0.0000,0.0043,0.0155,0.4560,3.2162,0,1.0000,0,0,0.4824,-1.6470,25.4301,2.6096,168.7610,0.000,0.000,0.433,0.0000,0.0000,0.0000,0.0000,0.0000,0.0000,0
2026-04-17,14:48:11,1948,1,0.0000,-0.0119,0.0160,0.4711,3.2162,0,1.0000,0,0,0.4868,0.6380,25.4248,0.5903,168.8082,0.000,0.000,0.430,0.0000,0.0000,0.0000,0.0000,0.0000,0.0000,0
2026-04-17,14:48:11,1983,1,0.0000,0.0078,0.0146,0.4280,3.2162,0,1.0000,0,0,0.5194,0.6035,25.3752,-0.8151,168.7498,0.000,0.000,0.426,0.0000,0.0000,0.0000,0.0000,0.0000,0.0000,0
2026-04-17,14:48:11,2018,1,0.0000,0.0063,0.0155,0.4560,3.2162,0,1.0000,0,0,0.5160,0.8278,25.4077,0.5041,168.7674,0.000,0.000,0.423,0.0000,0.0000,0.0000,0.0000,0.0000,0.0000,0
2026-04-17,14:48:11,2053,1,0.0000,-0.0043,0.0168,0.4947,3.2162,0,1.0000,0,0,0.5287,0.7212,25.4166,0.3153,168.7370,0.000,0.000,0.420,0.0000,0.0000,0.0000,0.0000,0.0000,0.0000,0
2026-04-17,14:48:12,2088,1,0.0000,-0.0009,0.0166,0.4882,3.2162,0,1.0000,0,0,0.5093,-1.1729,25.4556,1.2368,168.7365,0.000,0.000,0.417,0.0000,0.0000,0.0000,0.0000,0.0000,0.0000,0
2026-04-17,14:48:12,2123,1,0.0000,0.0031,0.0146,0.4280,3.2162,0,1.0000,0,0,0.5254,0.4405,25.5384,2.2879,168.6671,0.000,0.000,0.414,0.0000,0.0000,0.0000,0.0000,0.0000,0.0000,0
2026-04-17,14:48:12,2158,1,0.0000,0.0010,0.0144,0.4237,3.2162,0,1.0000,0,0,0.5449,0.8810,25.6765,3.9412,168.6751,0.000,0.000,0.410,0.0000,0.0000,0.0000,0.0000,0.0000,0.0000,0
2026-04-17,14:48:12,2194,1,0.0000,-0.0058,0.0163,0.4796,3.2162,0,1.0000,0,0,0.5394,-0.5833,25.7165,2.2458,168.8106,0.000,0.000,0.407,0.0000,0.0000,0.0000,0.0000,0.0000,0.0000,0
2026-04-17,14:48:12,2229,1,0.0000,-0.0021,0.0159,0.4667,3.2162,0,1.0000,0,0,0.5235,0.7886,25.8021,2.0437,168.7715,0.000,0.000,0.404,0.0000,0.0000,0.0000,0.0000,0.0000,0.0000,0
2026-04-17,14:48:12,2264,1,0.0000,0.0063,0.0149,0.4388,3.2162,0,1.0000,0,0,0.5485,-0.3930,25.8423,1.5934,168.7440,0.000,0.000,0.401,0.0000,0.0000,0.0000,0.0000,0.0000,0.0000,0
2026-04-17,14:48:12,2299,1,0.0000,0.0084,0.0156,0.4581,3.2162,0,1.0000,0,0,0.5273,-0.1365,25.7738,-0.9695,168.7016,0.000,0.000,0.398,0.0000,0.0000,0.0000,0.0000,0.0000,0.0000,0
2026-04-17,14:48:12,2334,1,0.0000,-0.0031,0.0157,0.4624,3.2162,0,1.0000,0,0,0.5996,2.5578,25.7616,-0.6671,168.7054,0.000,0.000,0.394,0.0000,0.0000,0.0000,0.0000,0.0000,0.0000,0
2026-04-17,14:48:12,2369,1,0.0000,0.0018,0.0164,0.4818,3.2162,0,1.0000,0,0,0.5583,-1.1339,25.7496,0.0939,168.6354,0.000,0.000,0.391,0.0000,0.0000,0.0000,0.0000,0.0000,0.0000,0
2026-04-17,14:48:12,2405,1,0.0000,0.0056,0.0156,0.4602,3.2162,0,1.0000,0,0,0.5618,0.2985,25.9693,4.7457,168.8893,0.000,0.000,0.388,0.0000,0.0000,0.0000,0.0000,0.0000,0.0000,0
2026-04-17,14:48:12,2440,1,0.0000,-0.0051,0.0151,0.4452,3.2162,0,1.0000,0,0,0.5351,-1.5773,26.0448,2.7069,168.7067,0.000,0.000,0.385,0.0000,0.0000,0.0000,0.0000,0.0000,0.0000,0
2026-04-17,14:48:12,2475,1,0.0000,0.0038,0.0153,0.4495,3.2162,0,1.0000,0,0,0.5308,0.7826,26.0265,0.1462,168.6149,0.000,0.000,0.382,0.0000,0.0000,0.0000,0.0000,0.0000,0.0000,0
2026-04-17,14:48:12,2510,1,0.0000,0.0006,0.0154,0.4539,3.2162,0,1.0000,0,0,0.5628,0.4014,25.7871,-3.4651,168.7327,0.000,0.000,0.378,0.0000,0.0000,0.0000,0.0000,0.0000,0.0000,0
2026-04-17,14:48:12,2545,1,0.0000,-0.0007,0.0157,0.4604,3.2163,0,1.0000,0,0,0.7143,4.9926,25.2251,-14.9946,167.4073,0.000,0.000,0.375,0.0000,0.0000,0.0000,0.0000,0.0000,0.0000,0
2026-04-17,14:48:12,2580,1,0.0000,-0.0114,0.0170,0.4988,3.2163,0,1.0000,0,0,0.9914,8.9125,22.5919,-54.3642,166.0835,0.000,0.000,0.372,0.0000,0.0000,0.0000,0.0000,0.0000,0.0000,0
2026-04-17,14:48:12,2616,1,0.0000,-0.0129,0.0184,0.5424,3.2163,0,1.0000,0,0,1.8877,18.3171,16.7166,-89.3963,165.1842,0.000,0.000,0.370,0.0000,0.0000,0.0000,0.0000,0.0000,0.0000,0
2026-04-17,14:48:12,2651,1,0.0000,-0.0051,0.0173,0.5076,3.2163,0,1.0000,0,0,2.0776,4.5895,10.9377,-129.2706,165.0747,0.000,0.000,0.366,0.0000,0.0000,0.0000,0.0000,0.0000,0.0000,0
2026-04-17,14:48:12,2687,1,-0.2160,0.0071,0.0154,0.4516,3.2163,0,1.0000,-27,1,2.6334,12.5074,6.0872,-124.7145,166.2287,0.000,0.000,0.363,0.0000,0.0000,0.0000,0.0000,0.0000,0.0000,0
2026-04-17,14:48:12,2723,1,-0.2160,-0.0069,0.0168,0.4928,3.2163,0,1.0000,-27,1,3.1466,7.3364,2.2027,-97.5432,167.1362,0.000,0.000,0.360,0.0000,0.0000,0.0000,0.0000,0.0000,0.0000,0
2026-04-17,14:48:12,2758,1,-0.2160,0.0072,0.0132,0.3870,3.2164,0,1.0000,-27,1,3.5442,11.6376,-0.5263,-77.0307,168.1133,0.000,0.000,0.357,0.0000,0.0000,0.0000,0.0000,0.0000,0.0000,0
2026-04-17,14:48:12,2793,1,-0.2160,-0.1680,0.0286,0.8398,3.2170,0,1.0000,-27,1,4.1640,10.2660,-3.4004,-76.4436,168.5265,0.000,0.000,0.354,0.0000,0.0000,0.0000,0.0000,0.0000,0.0000,0
2026-04-17,14:48:12,2829,1,-0.2160,-0.1826,0.0195,0.5721,3.2183,0,1.0000,-27,1,1.8275,-60.8643,-7.8007,-108.6127,142.0257,0.000,0.000,0.350,0.0000,0.0000,0.0000,0.0000,0.0000,0.0000,0
2026-04-17,14:48:12,2864,1,-0.2160,-0.1708,0.0220,0.6483,3.2201,0,1.0000,-27,1,0.6561,-28.6352,-11.2677,-101.7120,95.1121,0.008,0.000,0.347,0.0000,0.0000,0.0000,0.0000,0.0000,0.0000,0
2026-04-17,14:48:12,2899,1,-0.2160,-0.1803,0.0331,0.9726,3.2212,0,1.0000,-27,1,-0.9112,-36.0076,-10.7668,-25.2120,68.9667,0.016,0.000,0.344,0.0000,0.0000,0.0000,0.0000,0.0000,0.0000,0
2026-04-17,14:48:12,2935,1,-0.2160,-0.1840,0.0333,0.9787,3.2231,0,1.0000,-27,1,0.0891,46.5503,-7.7952,40.9165,84.3139,0.080,0.000,0.341,0.0000,0.0000,0.0000,0.0000,0.0000,0.0000,0
2026-04-17,14:48:12,2970,1,-0.2160,-0.2491,0.0423,1.2453,3.2250,0,1.0000,-27,1,3.1880,85.4705,-7.2837,12.0815,95.3631,0.048,0.000,0.338,0.0000,0.0000,0.0000,0.0000,0.0000,0.0000,0
2026-04-17,14:48:12,3005,1,-0.2160,-0.3663,0.0584,1.7191,3.2272,0,1.0000,-27,0,4.4604,32.5119,-9.5175,-39.3080,104.9981,0.016,0.000,0.334,0.0000,0.0000,0.0000,0.0000,0.0000,0.0000,0
2026-04-17,14:48:12,3040,1,-0.2160,-0.1320,0.0386,1.1340,3.2284,0,1.0000,-27,0,4.0014,-9.7657,-11.8764,-54.9782,114.2642,0.000,0.000,0.331,0.0000,0.0000,0.0000,0.0000,0.0000,0.0000,0
2026-04-17,14:48:12,3075,1,-0.2160,-0.1269,0.0327,0.9624,3.2296,0,1.0000,-27,0,3.7548,1.4820,-12.7009,-29.5177,89.3615,0.000,0.000,0.328,0.0000,0.0000,0.0000,0.0000,0.0000,0.0000,0
2026-04-17,14:48:13,3110,1,-0.1712,-0.0527,0.0114,0.3356,3.2303,0,1.0000,-27,0,4.9971,41.8946,-12.1884,-1.3422,102.0243,0.000,0.000,0.325,0.0000,0.0000,0.0000,0.0000,0.0000,0.0000,0
2026-04-17,14:48:13,3145,1,0.0000,0.0130,0.0149,0.4392,3.2305,0,1.0000,-27,0,7.6230,71.4051,-12.0064,0.4405,112.0616,0.000,0.000,0.348,0.0000,0.0000,0.0000,0.0000,0.0000,0.0000,0
2026-04-17,14:48:13,3180,1,0.0000,0.0259,0.0104,0.3054,3.2302,0,1.0000,-27,0,10.1870,70.5769,-12.5128,-15.7074,120.5158,0.000,0.000,0.380,0.0000,0.0000,0.0000,0.0000,0.0000,0.0000,0
2026-04-17,14:48:13,3215,1,0.0000,-0.0056,0.0121,0.3572,3.2303,0,1.0000,-27,0,7.8563,-47.7208,-14.9357,-56.6791,121.8099,0.000,0.000,0.412,0.0000,0.0000,0.0000,0.0000,0.0000,0.0000,0
2026-04-17,14:48:13,3250,1,0.0000,-0.0157,0.0137,0.4043,3.2303,0,1.0000,-27,0,6.2666,-32.1998,-17.5654,-73.6127,128.8584,0.000,0.000,0.444,0.0000,0.0000,0.0000,0.0000,0.0000,0.0000,0
2026-04-17,14:48:13,3285,1,0.0000,-0.1444,0.0305,0.8984,3.2309,0,1.0000,-27,0,5.4654,-25.4488,-19.7516,-69.7736,135.1599,0.016,0.000,0.476,0.0000,0.0000,0.0000,0.0000,0.0000,0.0000,0
2026-04-17,14:48:13,3320,1,0.0000,-0.1192,0.0495,1.4547,3.2320,0,1.0000,-27,0,3.7653,-43.9257,-20.3938,-34.0628,140.3741,0.080,0.000,0.482,0.0000,0.0000,0.0000,0.0000,0.0000,0.0000,0
2026-04-17,14:48:13,3355,1,0.0000,-0.0155,0.0510,1.5004,3.2323,0,1.0000,-27,0,3.3435,-2.2220,-19.3626,11.9849,144.1852,0.144,0.000,0.478,0.0000,0.0000,0.0000,0.0000,0.0000,0.0000,0
2026-04-17,14:48:13,3394,1,0.0000,-0.0325,0.0537,1.5795,3.2324,0,1.0000,-27,0,4.5108,17.2538,-18.3658,16.4136,145.7752,0.192,0.000,0.476,0.0000,0.0000,0.0000,0.0000,0.0000,0.0000,0
2026-04-17,14:48:13,3429,1,0.0000,0.0068,0.0548,1.6120,3.2326,0,1.0000,-27,0,5.4439,18.6572,-15.7633,60.3897,149.1565,0.184,0.000,0.499,0.0000,0.0000,0.0000,0.0000,0.0000,0.0000,0
2026-04-17,14:48:13,3465,1,-6.8880,-0.0342,0.0439,1.2898,3.2327,0,1.0000,-861,1,5.9415,16.0858,-13.5104,64.8003,152.3600,0.152,0.000,0.531,0.0000,0.0000,0.0000,0.0000,0.0000,0.0000,0
2026-04-17,14:48:13,3501,1,-7.9280,-0.1145,0.0061,0.1795,3.2332,0,1.0000,-991,1,5.8606,-1.5823,-11.4250,66.4708,154.9182,0.120,0.000,0.554,0.0000,0.0000,0.0000,0.0000,0.0000,0.0000,0
2026-04-17,14:48:13,3537,1,-7.9280,0.0282,0.0118,0.3472,3.2331,0,1.0000,-991,1,6.5939,24.4074,-9.1969,68.5630,157.0715,0.088,0.000,0.578,0.0000,0.0000,0.0000,0.0000,0.0000,0.0000,0
2026-04-17,14:48:13,3573,1,-7.9280,0.0244,0.0102,0.3008,3.2331,0,1.0000,-991,1,7.9926,30.8827,-6.8306,71.8634,158.8259,0.056,0.000,0.601,0.0000,0.0000,0.0000,0.0000,0.0000,0.0000,0
2026-04-17,14:48:13,3608,1,-7.9840,-0.0590,0.0179,0.5259,3.2333,0,1.0000,-998,1,9.0023,23.7123,-4.6590,67.9556,160.3842,0.024,0.000,0.624,0.0000,0.0000,0.0000,0.0000,0.0000,0.0000,0
2026-04-17,14:48:13,3644,1,-7.9840,-0.3164,0.0310,0.9106,3.2345,0,1.0000,-998,1,6.1894,-73.1514,-3.0811,54.9105,161.9261,0.016,0.000,0.656,0.0000,0.0000,0.0000,0.0000,0.0000,0.0000,0
2026-04-17,14:48:13,3679,1,-7.9840,-0.5185,0.0465,1.3665,3.2379,0,1.0000,-998,1,3.3567,-79.1358,-3.4099,9.1892,162.9206,0.080,0.000,0.662,0.0000,0.0000,0.0000,0.0000,0.0000,0.0000,0
2026-04-17,14:48:13,3715,1,-7.9840,-0.6242,0.0389,1.1450,3.2423,0,1.0000,-998,1,3.2696,15.2122,-3.6762,-1.3649,163.8999,0.144,0.000,0.658,0.0000,0.0000,0.0000,0.0000,0.0000,0.0000,0
2026-04-17,14:48:13,3750,1,-7.9840,-0.7898,0.0251,0.7387,3.2482,0,1.0000,-998,1,6.2198,77.2613,-3.7618,-2.9801,164.6370,0.160,0.000,0.673,0.0000,0.0000,0.0000,0.0000,0.0000,0.0000,0
2026-04-17,14:48:13,3785,1,-7.9840,-0.1134,-0.0006,0.0163,3.2514,0,1.0000,-998,1,7.7974,35.6975,-3.7977,-0.7188,165.4431,0.128,0.000,0.687,0.0000,0.0000,0.0000,0.0000,0.0000,0.0000,0
2026-04-17,14:48:13,3821,1,-7.9840,-0.0108,0.0129,0.3793,3.2517,0,1.0000,-998,1,6.1760,-29.5552,-3.1453,13.8966,166.2227,0.096,0.000,0.710,0.0000,0.0000,0.0000,0.0000,0.0000,0.0000,0
2026-04-17,14:48:13,3856,1,-7.9840,-0.2041,0.0274,0.8046,3.2523,0,1.0000,-998,1,4.6684,-43.2443,-2.0703,27.8074,166.7631,0.088,0.000,0.734,0.0000,0.0000,0.0000,0.0000,0.0000,0.0000,0
2026-04-17,14:48:13,3891,1,-7.9840,-0.3876,0.0420,1.2363,3.2544,0,1.0000,-998,1,3.2494,-33.7982,-1.3573,21.4687,166.9882,0.152,0.000,0.730,0.0000,0.0000,0.0000,0.0000,0.0000,0.0000,0
2026-04-17,14:48:13,3926,1,-7.9840,-0.5777,0.0452,1.3283,3.2580,0,1.0000,-998,1,3.7485,14.0754,-1.8638,-2.5638,167.5043,0.216,0.000,0.727,0.0000,0.0000,0.0000,0.0000,0.0000,0.0000,0
2026-04-17,14:48:13,3961,1,-7.9840,-0.6921,0.0342,1.0058,3.2624,0,1.0000,-998,1,4.4097,21.1346,-2.4165,-14.9177,167.6887,0.232,0.000,0.724,0.0000,0.0000,0.0000,0.0000,0.0000,0.0000,0
2026-04-17,14:48:13,3996,1,-7.9840,-0.0558,0.0205,0.6033,3.2649,0,1.0000,-998,1,6.4972,63.9888,-2.4478,-4.5717,167.8779,0.200,0.000,0.738,0.0000,0.0000,0.0000,0.0000,0.0000,0.0000,0
2026-04-17,14:48:13,4032,1,-7.9840,-0.0703,0.0218,0.6413,3.2654,0,1.0000,-998,1,6.1631,-32.7787,-2.2282,1.6810,168.3060,0.168,0.000,0.770,0.0000,0.0000,0.0000,0.0000,0.0000,0.0000,0
2026-04-17,14:48:13,4068,1,-7.9840,-0.2140,0.0249,0.7324,3.2667,0,1.0000,-998,1,3.7134,-52.6417,-2.7062,-10.9686,168.3631,0.136,0.000,0.776,0.0000,0.0000,0.0000,0.0000,0.0000,0.0000,0
2026-04-17,14:48:14,4104,1,-7.9840,-0.1493,0.0114,0.3355,3.2677,0,1.0000,-998,1,3.6298,-3.4466,-4.2158,-34.5355,168.5946,0.104,0.000,0.773,0.0000,0.0000,0.0000,0.0000,0.0000,0.0000,0
2026-04-17,14:48:14,4140,1,-7.9840,-0.0507,0.0136,0.3990,3.2679,0,1.0000,-998,1,3.9383,13.4331,-4.9785,-26.7312,168.5641,0.072,0.000,0.770,0.0000,0.0000,0.0000,0.0000,0.0000,0.0000,0
2026-04-17,14:48:14,4181,1,-7.9840,-0.0746,0.0164,0.4818,3.2682,0,1.0000,-998,1,5.7147,34.7740,-4.9813,-17.7927,168.7153,0.048,0.000,0.785,0.0000,0.0000,0.0000,0.0000,0.0000,0.0000,0
2026-04-17,14:48:14,4217,1,-7.9840,-0.2164,0.0228,0.6706,3.2694,0,1.0000,-998,1,4.8600,-37.7830,-4.7498,0.1143,168.9191,0.016,0.000,0.808,0.0000,0.0000,0.0000,0.0000,0.0000,0.0000,0
2026-04-17,14:48:14,4252,1,-7.9840,-0.5253,0.0351,1.0318,3.2725,0,1.0000,-998,1,3.6146,-22.0897,-3.8833,17.1625,168.8380,0.056,0.000,0.805,0.0000,0.0000,0.0000,0.0000,0.0000,0.0000,0
2026-04-17,14:48:14,4287,1,-7.9840,-0.6874,0.0321,0.9453,3.2772,0,1.0000,-998,1,3.4847,-8.0994,-3.0989,24.6082,169.0477,0.120,0.000,0.802,0.0000,0.0000,0.0000,0.0000,0.0000,0.0000,0
2026-04-17,14:48:14,4324,1,-7.9840,-0.5513,0.0163,0.4807,3.2826,0,1.0000,-998,1,4.2086,31.2096,-2.2139,26.1186,168.9812,0.136,0.000,0.798,0.0000,0.0000,0.0000,0.0000,0.0000,0.0000,0
2026-04-17,14:48:14,4359,1,-7.9840,-0.3161,0.0592,1.7402,3.2859,0,1.0000,-998,1,5.3799,20.8431,-1.9166,12.2249,169.1576,0.104,0.000,0.822,0.0000,0.0000,0.0000,0.0000,0.0000,0.0000,0
2026-04-17,14:48:14,4394,1,-7.9840,-0.5874,0.0674,1.9814,3.2889,0,1.0000,-998,1,3.5241,-55.2738,-1.9903,4.2908,169.1975,0.096,0.000,0.827,0.0000,0.0000,0.0000,0.0000,0.0000,0.0000,0
2026-04-17,14:48:14,4430,1,-7.9840,-0.6933,0.0713,2.0980,3.2942,0,1.0000,-998,1,2.7994,-10.3795,-1.8798,4.2937,169.3061,0.160,0.000,0.824,0.0000,0.0000,0.0000,0.0000,0.0000,0.0000,0
2026-04-17,14:48:14,4466,1,-7.9840,-0.9039,0.0532,1.5634,3.3000,0,1.0000,-998,1,3.3340,13.2690,-1.1279,16.6227,169.2709,0.224,0.000,0.821,0.0000,0.0000,0.0000,0.0000,0.0000,0.0000,0
2026-04-17,14:48:14,4501,1,-7.9840,-1.3533,0.0751,2.2086,3.3090,0,1.0000,-998,1,4.8155,48.9483,-0.2863,21.8033,169.3383,0.192,0.000,0.818,0.0000,0.0000,0.0000,0.0000,0.0000,0.0000,0
2026-04-17,14:48:14,4537,1,-7.9840,-1.4329,0.0634,1.8643,3.3194,0,1.0000,-998,1,5.1889,-6.6134,0.4196,20.2514,169.4038,0.160,0.000,0.850,0.0000,0.0000,0.0000,0.0000,0.0000,0.0000,0
2026-04-17,14:48:14,4573,1,-7.9840,-1.6677,0.0544,1.5998,3.3316,0,1.0000,-998,1,4.3123,-13.5289,0.8891,18.2456,169.3878,0.128,0.000,0.846,0.0000,0.0000,0.0000,0.0000,0.0000,0.0000,0
2026-04-17,14:48:14,4608,1,-7.9840,-1.7203,0.0555,1.6309,3.3452,0,1.0000,-998,1,4.1081,-0.8315,1.6026,21.7827,169.4525,0.096,0.000,0.843,0.0000,0.0000,0.0000,0.0000,0.0000,0.0000,0
2026-04-17,14:48:14,4645,1,-7.9840,-1.7382,0.0555,1.6312,3.3592,0,1.0000,-998,1,4.3302,12.0801,1.5243,5.6174,169.3929,0.064,0.000,0.840,0.0000,0.0000,0.0000,0.0000,0.0000,0.0000,0
2026-04-17,14:48:14,4680,1,-7.9840,-1.3672,0.0659,1.9393,3.3718,0,1.0000,-998,1,5.4724,38.5196,2.1950,16.7975,169.4478,0.032,0.000,0.854,0.0000,0.0000,0.0000,0.0000,0.0000,0.0000,0
2026-04-17,14:48:14,4715,1,-7.9840,-1.3242,0.0653,1.9219,3.3817,0,1.0000,-998,1,5.1529,-13.9407,2.7083,15.1364,169.4536,0.000,0.000,0.886,0.0000,0.0000,0.0000,0.0000,0.0000,0.0000,0
2026-04-17,14:48:14,4751,1,-7.9840,-1.1672,0.0476,1.4010,3.3914,0,1.0000,-998,1,4.7049,-18.8455,2.1194,-8.6443,169.4607,0.000,0.000,0.901,0.0000,0.0000,0.0000,0.0000,0.0000,0.0000,0
2026-04-17,14:48:14,4787,1,-7.9840,-1.6459,0.0660,1.9417,3.4029,0,1.0000,-998,1,4.3392,4.8248,1.3186,-18.6261,169.4377,0.064,0.000,0.898,0.0000,0.0000,0.0000,0.0000,0.0000,0.0000,0
2026-04-17,14:48:14,4822,1,-7.9840,-1.8569,0.0704,2.0707,3.4157,0,1.0000,-998,1,4.7565,-1.3203,0.5743,-21.3592,169.4369,0.032,0.000,0.894,0.0000,0.0000,0.0000,0.0000,0.0000,0.0000,0
2026-04-17,14:48:14,4858,1,-7.9840,-1.9374,0.0850,2.4993,3.4303,0,1.0000,-998,1,4.7503,5.5220,0.7447,-3.4232,169.4605,0.000,0.000,0.891,0.0000,0.0000,0.0000,0.0000,0.0000,0.0000,0
2026-04-17,14:48:14,4894,1,-7.9840,-1.8568,0.0697,2.0498,3.4441,0,1.0000,-998,1,4.6388,-15.5211,-0.4286,-29.2505,169.3865,0.000,0.000,0.888,0.0000,0.0000,0.0000,0.0000,0.0000,0.0000,0
2026-04-17,14:48:14,4929,1,-7.9840,-2.0820,0.0697,2.0508,3.4588,0,1.0000,-998,1,4.2478,-1.0659,-1.3269,-26.6383,169.4796,0.048,0.000,0.885,0.0000,0.0000,0.0000,0.0000,0.0000,0.0000,0
2026-04-17,14:48:14,4964,1,-7.9840,-1.6111,0.0658,1.9355,3.4676,0,1.0000,-998,1,4.4144,1.7956,-1.5394,-22.0419,169.4643,0.056,0.000,0.883,0.0000,0.0000,0.0000,0.0000,0.0000,0.0000,0
2026-04-17,14:48:14,5000,1,-7.9840,-1.9841,0.0676,1.9881,3.4862,0,1.0000,-998,1,3.8736,-7.3987,-1.8291,-12.0624,169.4911,0.120,0.000,0.880,0.0000,0.0000,0.0000,0.0000,0.0000,0.0000,0
2026-04-17,14:48:14,5036,1,-7.9840,-1.9821,0.0487,1.4315,3.5014,0,1.0000,-998,1,4.4215,22.1814,-2.1299,-8.3979,169.4590,0.136,0.000,0.877,0.0000,0.0000,0.0000,0.0000,0.0000,0.0000,0
2026-04-17,14:48:14,5071,1,-7.9840,-1.6133,0.0735,2.1603,3.5147,0,1.0000,-998,1,4.7841,-2.4345,-2.2236,-6.8673,169.3741,0.104,0.000,0.882,0.0000,0.0000,0.0000,0.0000,0.0000,0.0000,0
2026-04-17,14:48:15,5106,1,-7.9840,-1.9250,0.0975,2.8688,3.5288,0,1.0000,-998,1,3.7324,-16.1151,-2.7358,-10.5926,169.5262,0.120,0.000,0.879,0.0000,0.0000,0.0000,0.0000,0.0000,0.0000,0
2026-04-17,14:48:15,5143,1,-7.9840,-1.9283,0.0861,2.5320,3.5444,0,1.0000,-998,1,4.1209,7.2456,-2.6157,-1.9677,169.4678,0.112,0.000,0.876,0.0000,0.0000,0.0000,0.0000,0.0000,0.0000,0
2026-04-17,14:48:15,5178,1,-7.9840,-2.2174,0.0783,2.3029,3.5610,0,1.0000,-998,1,3.9999,8.1495,-2.1796,6.8414,169.5740,0.080,0.000,0.873,0.0000,0.0000,0.0000,0.0000,0.0000,0.0000,0
2026-04-17,14:48:15,5213,1,-7.9840,-2.4964,0.0684,2.0115,3.5792,0,1.0000,-998,1,4.7618,20.0100,-1.4481,17.7362,169.5533,0.048,0.000,0.870,0.0000,0.0000,0.0000,0.0000,0.0000,0.0000,0
2026-04-17,14:48:15,5248,1,-7.9840,-2.3768,0.0669,1.9675,3.5968,0,1.0000,-998,1,4.7956,-6.7000,-0.9619,17.2710,169.4830,0.016,0.000,0.884,0.0000,0.0000,0.0000,0.0000,0.0000,0.0000,0
2026-04-17,14:48:15,5284,1,-7.9840,-2.2850,0.0805,2.3667,3.6132,0,1.0000,-998,1,4.7830,-3.8608,-0.0670,25.9046,169.5892,0.000,0.000,0.881,0.0000,0.0000,0.0000,0.0000,0.0000,0.0000,0
2026-04-17,14:48:15,5319,1,-7.9840,-2.2058,0.0813,2.3902,3.6297,0,1.0000,-998,1,4.9760,3.7740,0.8762,24.9908,169.5611,0.000,0.000,0.878,0.0000,0.0000,0.0000,0.0000,0.0000,0.0000,0
2026-04-17,14:48:15,5355,1,-7.9840,-1.8765,0.0897,2.6393,3.6451,0,1.0000,-998,1,5.1431,4.8761,0.8466,5.9953,169.5541,0.000,0.000,0.910,0.0000,0.0000,0.0000,0.0000,0.0000,0.0000,0
2026-04-17,14:48:15,5390,1,-7.9840,-1.8292,0.0702,2.0649,3.6579,0,1.0000,-998,1,5.5614,2.1247,0.0874,-14.4131,169.4974,0.000,0.000,0.942,0.0000,0.0000,0.0000,0.0000,0.0000,0.0000,0
2026-04-17,14:48:15,5425,1,-7.9840,-2.1726,0.0730,2.1469,3.6727,0,1.0000,-998,1,5.2830,-5.7149,-1.3039,-32.6387,169.4200,0.000,0.000,0.974,0.0000,0.0000,0.0000,0.0000,0.0000,0.0000,0
2026-04-17,14:48:15,5461,1,-7.9840,-2.2832,0.0689,2.0266,3.6896,0,1.0000,-998,1,5.5295,4.2768,-2.7232,-36.5410,169.5982,0.000,0.000,1.000,0.0000,0.0000,0.0000,0.0000,0.0000,0.0000,0
2026-04-17,14:48:15,5496,1,-7.9840,-2.0306,0.1061,3.1215,3.7058,0,1.0000,-998,1,6.0355,10.9232,-3.1345,-21.4076,169.6086,0.000,0.000,1.000,0.0000,0.0000,0.0000,0.0000,0.0000,0.0000,0
2026-04-17,14:48:15,5531,1,-7.9840,-1.8107,0.0792,2.3294,3.7186,0,1.0000,-998,1,5.6795,-21.0987,-3.5513,-16.2158,169.5863,0.000,0.000,1.000,0.0000,0.0000,0.0000,0.0000,0.0000,0.0000,0
2026-04-17,14:48:15,5567,1,-7.9840,-2.1026,0.0752,2.2118,3.7337,0,1.0000,-998,1,5.5186,2.3247,-3.4615,-1.3410,169.6748,0.000,0.000,1.000,0.0000,0.0000,0.0000,0.0000,0.0000,0.0000,0
2026-04-17,14:48:15,5604,1,-7.9840,-2.1257,0.0631,1.8563,3.7498,0,1.0000,-998,1,6.3775,22.6142,-2.9679,9.3094,169.5512,0.000,0.000,1.000,0.0000,0.0000,0.0000,0.0000,0.0000,0.0000,0
2026-04-17,14:48:15,5639,1,-7.9840,-1.9526,0.0752,2.2119,3.7643,0,1.0000,-998,1,6.3435,-11.2713,-2.3627,20.0637,169.5327,0.000,0.000,1.000,0.0000,0.0000,0.0000,0.0000,0.0000,0.0000,0
2026-04-17,14:48:15,5676,1,-7.9840,-1.9833,0.0668,1.9659,3.7789,0,1.0000,-998,1,6.4364,-0.9696,-1.1974,30.3932,169.4806,0.000,0.000,1.000,0.0000,0.0000,0.0000,0.0000,0.0000,0.0000,0
2026-04-17,14:48:15,5711,1,-7.9840,-1.8406,0.0810,2.3818,3.7935,0,1.0000,-998,1,6.6773,9.8173,-0.2286,30.6035,169.5472,0.000,0.000,1.000,0.0000,0.0000,0.0000,0.0000,0.0000,0.0000,0
2026-04-17,14:48:15,5748,1,-7.9840,-1.6572,0.0682,2.0053,3.8057,0,1.0000,-998,1,6.6561,2.7899,0.0658,23.5637,169.5181,0.000,0.000,1.000,0.0000,0.0000,0.0000,0.0000,0.0000,0.0000,0
2026-04-17,14:48:15,5783,1,-7.9840,-1.8488,0.0596,1.7526,3.8203,0,1.0000,-998,1,6.6540,14.7397,0.6241,17.1849,169.5780,0.000,0.000,1.000,0.0000,0.0000,0.0000,0.0000,0.0000,0.0000,0
2026-04-17,14:48:15,5819,1,-7.9840,-1.8836,0.0520,1.5308,3.8355,0,1.0000,-998,1,6.9078,3.4602,1.0172,15.9548,169.5892,0.000,0.000,1.000,0.0000,0.0000,0.0000,0.0000,0.0000,0.0000,0
2026-04-17,14:48:15,5855,1,-7.9840,-1.6244,0.0612,1.7987,3.8494,0,1.0000,-998,1,7.0243,7.7508,0.6731,-3.8636,169.5510,0.000,0.000,1.000,0.0000,0.0000,0.0000,0.0000,0.0000,0.0000,0
2026-04-17,14:48:15,5891,1,-7.9840,-1.8694,0.0599,1.7626,3.8641,0,1.0000,-998,1,6.4352,-6.3919,0.5274,-2.8984,169.5408,0.000,0.000,1.000,0.0000,0.0000,0.0000,0.0000,0.0000,0.0000,0
2026-04-17,14:48:15,5927,1,-7.9840,-1.9257,0.0522,1.5367,3.8793,0,1.0000,-998,1,6.9784,16.1833,-0.1815,-13.8248,169.5165,0.000,0.000,1.000,0.0000,0.0000,0.0000,0.0000,0.0000,0.0000,0
2026-04-17,14:48:15,5963,1,-7.9840,-1.7026,0.0703,2.0686,3.8935,0,1.0000,-998,1,6.9137,0.6554,-0.6816,-18.4011,169.5855,0.000,0.000,1.000,0.0000,0.0000,0.0000,0.0000,0.0000,0.0000,0
2026-04-17,14:48:15,5999,1,-7.9840,-1.8614,0.0543,1.5983,3.9076,0,1.0000,-998,1,6.5317,-4.8361,-2.2019,-35.5518,169.6099,0.000,0.000,1.000,0.0000,0.0000,0.0000,0.0000,0.0000,0.0000,0
2026-04-17,14:48:15,6035,1,-7.9840,-1.4270,0.0850,2.5014,3.9207,0,1.0000,-998,1,7.3967,26.2125,-2.9321,-28.2562,169.6026,0.000,0.000,1.000,0.0000,0.0000,0.0000,0.0000,0.0000,0.0000,0
2026-04-17,14:48:15,6071,1,-7.9840,-1.5139,0.0721,2.1208,3.9315,0,1.0000,-998,1,6.2252,-39.4376,-4.7592,-48.4902,169.6196,0.016,0.000,1.000,0.0000,0.0000,0.0000,0.0000,0.0000,0.0000,0
2026-04-17,14:48:16,6106,1,-7.9840,-1.6207,0.0474,1.3940,3.9433,0,1.0000,-998,1,6.9207,27.2336,-6.9962,-61.8410,169.6086,0.032,0.000,1.000,0.0000,0.0000,0.0000,0.0000,0.0000,0.0000,0
2026-04-17,14:48:16,6141,1,-7.9840,-1.3517,0.0495,1.4558,3.9547,0,1.0000,-998,1,7.2847,4.7605,-7.1518,-20.8555,169.6964,0.000,0.000,1.000,0.0000,0.0000,0.0000,0.0000,0.0000,0.0000,0
2026-04-17,14:48:16,6177,1,-7.9840,-1.5188,0.0509,1.4963,3.9663,0,1.0000,-998,1,6.9751,1.4948,-6.2175,11.9367,169.6083,0.000,0.000,1.000,0.0000,0.0000,0.0000,0.0000,0.0000,0.0000,0
2026-04-17,14:48:16,6212,1,-7.9840,-1.4143,0.0686,2.0187,3.9775,0,1.0000,-998,1,7.1995,-1.5060,-5.0660,28.5455,169.7339,0.000,0.000,1.000,0.0000,0.0000,0.0000,0.0000,0.0000,0.0000,0
2026-04-17,14:48:16,6247,1,-7.9840,-1.4206,0.0512,1.5046,3.9879,0,1.0000,-998,1,6.4112,-18.5847,-3.8922,33.2006,169.7479,0.016,0.000,1.000,0.0000,0.0000,0.0000,0.0000,0.0000,0.0000,0
2026-04-17,14:48:16,6283,1,-7.9840,-1.5539,0.0450,1.3225,4.0000,0,1.0000,-998,1,7.0585,23.9504,-2.7797,33.5486,169.7894,0.032,0.000,1.000,0.0000,0.0000,0.0000,0.0000,0.0000,0.0000,0
2026-04-17,14:48:16,6318,1,-7.9840,-1.5385,0.0691,2.0334,4.0110,0,1.0000,-998,1,6.7901,-15.1453,-1.5293,38.2053,169.7943,0.000,0.000,1.000,0.0000,0.0000,0.0000,0.0000,0.0000,0.0000,0
2026-04-17,14:48:16,6353,1,-7.9840,-1.5376,0.0633,1.8626,4.0220,0,1.0000,-998,1,7.0120,13.7424,-0.2668,37.9398,169.7449,0.000,0.000,1.000,0.0000,0.0000,0.0000,0.0000,0.0000,0.0000,0
2026-04-17,14:48:16,6389,1,-7.9840,-1.2536,0.0483,1.4197,4.0324,0,1.0000,-998,1,7.2099,-7.5604,0.2470,22.9617,169.8356,0.000,0.000,1.000,0.0000,0.0000,0.0000,0.0000,0.0000,0.0000,0
2026-04-17,14:48:16,6424,1,-7.9840,-1.6052,0.0644,1.8937,4.0440,0,1.0000,-998,1,6.4054,-5.9666,0.7200,18.4167,169.7035,0.032,0.000,1.000,0.0000,0.0000,0.0000,0.0000,0.0000,0.0000,0
2026-04-17,14:48:16,6459,1,-7.9840,-1.5148,0.0701,2.0604,4.0558,0,1.0000,-998,1,7.5384,24.6322,0.6048,0.7466,169.7870,0.000,0.000,1.000,0.0000,0.0000,0.0000,0.0000,0.0000,0.0000,0
2026-04-17,14:48:16,6495,1,-7.9840,-1.5308,0.0568,1.6712,4.0667,0,1.0000,-998,1,6.9061,-28.6178,-0.2312,-18.0126,169.7345,0.000,0.000,1.000,0.0000,0.0000,0.0000,0.0000,0.0000,0.0000,0
2026-04-17,14:48:16,6529,1,-7.9840,-1.5597,0.0656,1.9286,4.0743,0,1.0000,-998,1,6.9637,-15.9636,-0.5711,-16.7299,169.7504,0.016,0.000,1.000,0.0000,0.0000,0.0000,0.0000,0.0000,0.0000,0
2026-04-17,14:48:16,6564,1,-7.9840,-1.6076,0.0443,1.3023,4.0892,0,1.0000,-998,1,6.7498,-15.9191,-2.3748,-43.7200,169.8185,0.032,0.000,1.000,0.0000,0.0000,0.0000,0.0000,0.0000,0.0000,0
2026-04-17,14:48:16,6600,1,-7.9840,-1.5188,0.0683,2.0100,4.1004,0,1.0000,-998,1,7.1342,3.1581,-3.6646,-40.0857,169.6765,0.024,0.000,1.000,0.0000,0.0000,0.0000,0.0000,0.0000,0.0000,0
2026-04-17,14:48:16,6635,1,-7.9840,-1.6615,0.0626,1.8413,4.1118,0,1.0000,-998,1,7.0710,-2.7645,-4.7098,-35.5600,169.8579,0.000,0.000,1.000,0.0000,0.0000,0.0000,0.0000,0.0000,0.0000,0
2026-04-17,14:48:16,6670,1,-7.9840,-1.7891,0.0477,1.4030,4.1251,0,1.0000,-998,1,7.2871,10.8320,-5.7409,-33.8088,169.6924,0.000,0.000,1.000,0.0000,0.0000,0.0000,0.0000,0.0000,0.0000,0
2026-04-17,14:48:16,6706,1,-7.9840,-1.4503,0.0702,2.0651,4.1379,0,1.0000,-998,1,7.7910,14.7146,-5.9871,-14.2672,169.8123,0.000,0.000,1.000,0.0000,0.0000,0.0000,0.0000,0.0000,0.0000,0
2026-04-17,14:48:16,6741,1,-7.9840,-1.7781,0.0649,1.9099,4.1502,0,1.0000,-998,1,7.0914,-12.9685,-5.6903,0.6483,169.7269,0.000,0.000,1.000,0.0000,0.0000,0.0000,0.0000,0.0000,0.0000,0
2026-04-17,14:48:16,6777,1,-7.9840,-2.0463,0.0739,2.1721,4.1647,0,1.0000,-998,1,7.6117,11.4533,-5.1931,13.5533,169.7629,0.000,0.000,1.000,0.0000,0.0000,0.0000,0.0000,0.0000,0.0000,0
2026-04-17,14:48:16,6812,1,-7.9840,-1.9135,0.0691,2.0315,4.1798,0,1.0000,-998,1,7.8425,3.9953,-3.9221,29.0010,169.7653,0.000,0.000,1.000,0.0000,0.0000,0.0000,0.0000,0.0000,0.0000,0
2026-04-17,14:48:16,6847,1,-7.9840,-2.0867,0.0816,2.3992,4.1941,0,1.0000,-998,1,7.7100,-12.1094,-2.8495,33.6893,169.7045,0.000,0.000,1.000,0.0000,0.0000,0.0000,0.0000,0.0000,0.0000,0
2026-04-17,14:48:16,6883,1,-7.9840,-2.2560,0.0791,2.3277,4.2103,0,1.0000,-998,1,7.4770,-5.7833,-2.0326,28.6896,169.7486,0.000,0.000,1.000,0.0000,0.0000,0.0000,0.0000,0.0000,0.0000,0
2026-04-17,14:48:16,6918,1,-7.9840,-2.3930,0.0720,2.1176,4.2280,0,1.0000,-998,1,7.5395,-1.7232,-1.2817,27.0526,169.7278,0.000,0.000,1.000,0.0000,0.0000,0.0000,0.0000,0.0000,0.0000,0
2026-04-17,14:48:16,6953,1,-7.9840,-1.8780,0.0790,2.3247,4.2446,0,1.0000,-998,1,8.2737,23.7096,-0.6393,20.4855,169.7674,0.000,0.000,1.000,0.0000,0.0000,0.0000,0.0000,0.0000,0.0000,0
2026-04-17,14:48:16,6989,1,-7.9840,-2.0172,0.0682,2.0046,4.2599,0,1.0000,-998,1,7.3215,-21.8112,-0.4930,9.0725,169.6857,0.016,0.000,1.000,0.0000,0.0000,0.0000,0.0000,0.0000,0.0000,0
2026-04-17,14:48:16,7024,1,-7.9840,-1.8554,0.0634,1.8641,4.2755,0,1.0000,-998,1,8.3452,37.4070,-0.7709,-6.5316,169.6903,0.008,0.000,1.000,0.0000,0.0000,0.0000,0.0000,0.0000,0.0000,0
2026-04-17,14:48:16,7059,1,-7.9840,-2.0428,0.0660,1.9415,4.2911,0,1.0000,-998,1,7.4533,-28.2609,-1.7263,-22.3325,169.6931,0.000,0.000,1.000,0.0000,0.0000,0.0000,0.0000,0.0000,0.0000,0
2026-04-17,14:48:17,7095,1,-7.9840,-2.0673,0.0617,1.8156,4.3076,0,1.0000,-998,1,8.2280,31.9705,-3.0712,-36.5577,169.6486,0.016,0.000,1.000,0.0000,0.0000,0.0000,0.0000,0.0000,0.0000,0
2026-04-17,14:48:17,7130,1,-7.9840,-2.0523,0.0653,1.9206,4.3238,0,1.0000,-998,1,8.0128,-14.5223,-4.2853,-37.8438,169.7347,0.000,0.000,1.000,0.0000,0.0000,0.0000,0.0000,0.0000,0.0000,0
2026-04-17,14:48:17,7166,1,-7.9840,-2.2751,0.0734,2.1599,4.3411,0,1.0000,-998,1,7.5568,-2.3738,-4.8628,-22.8197,169.6028,0.048,0.000,1.000,0.0000,0.0000,0.0000,0.0000,0.0000,0.0000,0
2026-04-17,14:48:17,7202,1,-7.9840,-2.4939,0.0624,1.8366,4.3599,0,1.0000,-998,1,7.7951,0.8321,-5.4385,-19.2566,169.6985,0.016,0.000,1.000,0.0000,0.0000,0.0000,0.0000,0.0000,0.0000,0
2026-04-17,14:48:17,7238,1,-7.9840,-2.2831,0.0804,2.3660,4.3763,0,1.0000,-998,1,7.5778,-22.7855,-5.2146,-2.6876,169.6133,0.000,0.000,1.000,0.0000,0.0000,0.0000,0.0000,0.0000,0.0000,0
2026-04-17,14:48:17,7273,1,-7.9840,-2.4720,0.0772,2.2705,4.3940,0,1.0000,-998,1,7.6082,6.1987,-4.7639,8.5701,169.7045,0.024,0.000,1.000,0.0000,0.0000,0.0000,0.0000,0.0000,0.0000,0
2026-04-17,14:48:17,7311,1,-7.9840,-2.2908,0.0766,2.2517,4.4115,0,1.0000,-998,1,7.6276,3.0366,-4.5770,7.3959,169.7068,0.000,0.000,1.000,0.0000,0.0000,0.0000,0.0000,0.0000,0.0000,0
2026-04-17,14:48:17,7347,1,-7.9840,-2.1883,0.0620,1.8223,4.4301,0,1.0000,-998,1,7.3236,-10.8209,-4.0758,12.3968,169.7309,0.000,0.000,1.000,0.0000,0.0000,0.0000,0.0000,0.0000,0.0000,0
2026-04-17,14:48:17,7382,1,-7.9840,-2.0651,0.0747,2.1960,4.4470,0,1.0000,-998,1,7.6733,14.3430,-2.8211,30.8616,169.6936,0.000,0.000,1.000,0.0000,0.0000,0.0000,0.0000,0.0000,0.0000,0
2026-04-17,14:48:17,7418,1,-7.9840,-2.3336,0.0662,1.9484,4.4640,0,1.0000,-998,1,7.0575,-17.6145,-1.6892,34.2522,169.6579,0.016,0.000,1.000,0.0000,0.0000,0.0000,0.0000,0.0000,0.0000,0
2026-04-17,14:48:17,7453,1,-7.9840,-2.0184,0.0848,2.4931,4.4795,0,1.0000,-998,1,7.7607,16.3688,-1.6485,10.6492,169.6559,0.008,0.000,1.000,0.0000,0.0000,0.0000,0.0000,0.0000,0.0000,0
2026-04-17,14:48:17,7488,1,-7.9840,-2.1888,0.0657,1.9315,4.4950,0,1.0000,-998,1,6.9808,-21.2434,-2.3406,-9.4882,169.7010,0.000,0.000,1.000,0.0000,0.0000,0.0000,0.0000,0.0000,0.0000,0
2026-04-17,14:48:17,7525,1,-7.9840,-2.2073,0.0659,1.9382,4.5120,0,1.0000,-998,1,7.5948,11.8779,-3.5353,-27.5282,169.6852,0.000,0.000,1.000,0.0000,0.0000,0.0000,0.0000,0.0000,0.0000,0
2026-04-17,14:48:17,7560,1,-7.9840,-2.2438,0.0773,2.2737,4.5278,0,1.0000,-998,1,7.2575,-14.5849,-4.8839,-37.5877,169.6891,0.000,0.000,1.000,0.0000,0.0000,0.0000,0.0000,0.0000,0.0000,0
2026-04-17,14:48:17,7596,1,-7.9840,-2.2148,0.0820,2.4106,4.5440,0,1.0000,-998,1,7.4860,0.9232,-5.8235,-34.6061,169.6470,0.000,0.000,1.000,0.0000,0.0000,0.0000,0.0000,0.0000,0.0000,0
2026-04-17,14:48:17,7632,1,-7.9840,-2.4092,0.0976,2.8703,4.5612,0,1.0000,-998,1,6.9040,-19.0922,-6.1725,-18.2590,169.6086,0.016,0.000,1.000,0.0000,0.0000,0.0000,0.0000,0.0000,0.0000,0
2026-04-17,14:48:17,7667,1,-7.9840,-2.3366,0.0787,2.3140,4.5782,0,1.0000,-998,1,7.5258,11.3729,-5.9222,-1.0207,169.5469,0.008,0.000,1.000,0.0000,0.0000,0.0000,0.0000,0.0000,0.0000,0
2026-04-17,14:48:17,7702,1,-7.9840,-2.1690,0.0979,2.8794,4.5955,0,1.0000,-998,1,7.3655,-0.2821,-5.6956,5.4946,169.6009,0.000,0.000,1.000,0.0000,0.0000,0.0000,0.0000,0.0000,0.0000,0
2026-04-17,14:48:17,7738,1,-7.9840,-2.2091,0.0834,2.4542,4.6127,0,1.0000,-998,1,7.3309,-1.2703,-5.3678,5.8044,169.5417,0.000,0.000,1.000,0.0000,0.0000,0.0000,0.0000,0.0000,0.0000,0
2026-04-17,14:48:17,7773,1,-7.9840,-2.5020,0.0899,2.6448,4.6312,0,1.0000,-998,1,7.2555,5.9500,-4.4925,23.4404,169.6078,0.000,0.000,1.000,0.0000,0.0000,0.0000,0.0000,0.0000,0.0000,0
2026-04-17,14:48:17,7809,1,-7.9840,-2.8808,0.0924,2.7169,4.6516,0,1.0000,-998,1,7.3102,-2.0067,-4.0652,14.7971,169.6552,0.000,0.000,1.000,0.0000,0.0000,0.0000,0.0000,0.0000,0.0000,0
2026-04-17,14:48:17,7845,1,-7.9840,-2.7180,0.0887,2.6100,4.6736,0,1.0000,-998,1,7.5488,9.6756,-3.7041,12.9290,169.6521,0.000,0.000,0.998,0.0000,0.0000,0.0000,0.0000,0.0000,0.0000,0
2026-04-17,14:48:17,7880,1,-7.9840,-2.5256,0.0845,2.4847,4.6933,0,1.0000,-998,1,7.3477,-13.9014,-3.6051,5.9532,169.4200,0.000,0.000,0.999,0.0000,0.0000,0.0000,0.0000,0.0000,0.0000,0
2026-04-17,14:48:17,7916,1,-7.9840,-2.7676,0.0884,2.5988,4.7139,0,1.0000,-998,1,7.2305,6.2476,-3.1336,13.5546,169.4054,0.000,0.000,0.996,0.0000,0.0000,0.0000,0.0000,0.0000,0.0000,0
2026-04-17,14:48:17,7951,1,-7.9840,-2.4177,0.0738,2.1710,4.7321,0,1.0000,-998,1,7.4926,-7.9920,-3.4291,-6.8052,169.4246,0.000,0.000,0.993,0.0000,0.0000,0.0000,0.0000,0.0000,0.0000,0
2026-04-17,14:48:17,7986,1,-7.9840,-2.1449,0.0865,2.5449,4.7501,0,1.0000,-998,1,7.4828,17.2443,-4.6376,-25.1454,169.4441,0.000,0.000,0.990,0.0000,0.0000,0.0000,0.0000,0.0000,0.0000,0
2026-04-17,14:48:17,8022,1,-7.9840,-2.3002,0.0778,2.2869,4.7679,0,1.0000,-998,1,7.0875,-19.5938,-5.8128,-32.8160,169.4874,0.000,0.000,0.986,0.0000,0.0000,0.0000,0.0000,0.0000,0.0000,0
2026-04-17,14:48:17,8058,1,-7.9840,-2.5956,0.0699,2.0569,4.7871,0,1.0000,-998,1,7.0207,14.0923,-5.7578,-7.5963,169.4137,0.064,0.000,1.000,0.0000,0.0000,0.0000,0.0000,0.0000,0.0000,0
2026-04-17,14:48:18,8091,1,-7.9840,-2.2941,0.0762,2.2419,4.7988,0,1.0000,-998,1,7.1229,9.7114,-5.5784,-4.4895,169.4077,0.048,0.000,1.000,0.0000,0.0000,0.0000,0.0000,0.0000,0.0000,0
2026-04-17,14:48:18,8124,1,-7.9840,-2.5084,0.0810,2.3811,4.8217,0,1.0000,-998,1,6.6567,-0.8166,-4.8115,15.2507,169.4680,0.016,0.000,0.997,0.0000,0.0000,0.0000,0.0000,0.0000,0.0000,0
2026-04-17,14:48:18,8160,1,-7.9840,-2.2544,0.0697,2.0486,4.8393,0,1.0000,-998,1,7.1078,1.7486,-3.6516,27.9231,169.4896,0.000,0.000,0.994,0.0000,0.0000,0.0000,0.0000,0.0000,0.0000,0
2026-04-17,14:48:18,8195,1,-7.9840,-1.7180,0.0813,2.3903,4.8551,0,1.0000,-998,1,7.2302,18.6929,-2.3688,36.4797,169.5291,0.000,0.000,1.000,0.0000,0.0000,0.0000,0.0000,0.0000,0.0000,0
2026-04-17,14:48:18,8231,1,-7.9840,-1.9613,0.0934,2.7465,4.8704,0,1.0000,-998,1,6.7010,-16.9124,-1.3258,31.6895,169.5185,0.000,0.000,1.000,0.0000,0.0000,0.0000,0.0000,0.0000,0.0000,0
2026-04-17,14:48:18,8266,1,-7.9840,-2.1304,0.0873,2.5691,4.8864,0,1.0000,-998,1,6.2556,-8.9779,-1.1005,14.2490,169.6479,0.064,0.000,1.000,0.0000,0.0000,0.0000,0.0000,0.0000,0.0000,0
2026-04-17,14:48:18,8301,1,-7.9840,-2.2892,0.0680,2.0000,4.9038,0,1.0000,-998,1,6.4686,10.2743,-0.5500,18.1518,169.5856,0.104,0.000,1.000,0.0000,0.0000,0.0000,0.0000,0.0000,0.0000,0
2026-04-17,14:48:18,8338,1,-7.9840,-2.1367,0.0711,2.0903,4.9216,0,1.0000,-998,1,7.2041,17.7843,-0.9398,-1.5501,169.6636,0.072,0.000,1.000,0.0000,0.0000,0.0000,0.0000,0.0000,0.0000,0
2026-04-17,14:48:18,8373,1,-7.9840,-2.4340,0.0646,1.8989,4.9392,0,1.0000,-998,1,6.5306,-9.9406,-1.5946,-17.4533,169.6326,0.040,0.000,1.000,0.0000,0.0000,0.0000,0.0000,0.0000,0.0000,0
2026-04-17,14:48:18,8408,1,-7.9840,-2.2871,0.0913,2.6864,4.9553,0,1.0000,-998,1,6.9748,-2.2518,-2.4377,-24.6371,169.6405,0.008,0.000,1.000,0.0000,0.0000,0.0000,0.0000,0.0000,0.0000,0
2026-04-17,14:48:18,8444,1,-7.9840,-2.4721,0.0910,2.6763,4.9730,0,1.0000,-998,1,6.0113,-17.8399,-3.9876,-39.0386,169.6603,0.032,0.000,1.000,0.0000,0.0000,0.0000,0.0000,0.0000,0.0000,0
2026-04-17,14:48:18,8479,1,-7.9840,-2.6732,0.0862,2.5346,4.9918,0,1.0000,-998,1,6.7481,16.0048,-5.4658,-44.6257,169.6912,0.024,0.000,1.000,0.0000,0.0000,0.0000,0.0000,0.0000,0.0000,0
2026-04-17,14:48:18,8515,1,-7.9840,-2.3146,0.0802,2.3603,5.0111,0,1.0000,-998,1,6.9294,9.7155,-6.4455,-33.2514,169.6704,0.000,0.000,1.000,0.0000,0.0000,0.0000,0.0000,0.0000,0.0000,0
2026-04-17,14:48:18,8551,1,-7.9840,-2.6000,0.0944,2.7754,5.0311,0,1.0000,-998,1,6.5818,-4.3779,-6.2029,-6.2308,169.6851,0.000,0.000,1.000,0.0000,0.0000,0.0000,0.0000,0.0000,0.0000,0
2026-04-17,14:48:18,8587,1,-7.9840,-2.9290,0.0922,2.7125,5.0523,0,1.0000,-998,1,6.4037,-6.4418,-6.5358,-9.2584,169.6712,0.000,0.000,1.000,0.0000,0.0000,0.0000,0.0000,0.0000,0.0000,0
2026-04-17,14:48:18,8622,1,-7.9840,-3.0522,0.0811,2.3851,5.0747,0,1.0000,-998,1,6.5442,6.4913,-6.7118,-7.2934,169.6450,0.000,0.000,1.000,0.0000,0.0000,0.0000,0.0000,0.0000,0.0000,0
2026-04-17,14:48:18,8657,1,-7.9840,-3.0016,0.0854,2.5118,5.0969,0,1.0000,-998,1,6.9690,12.3218,-6.4742,3.9253,169.6862,0.000,0.000,1.000,0.0000,0.0000,0.0000,0.0000,0.0000,0.0000,0
2026-04-17,14:48:18,8692,1,-7.9840,-2.9291,0.0922,2.7117,5.1185,0,1.0000,-998,1,6.5726,-19.2200,-5.3482,28.1689,169.7695,0.000,0.000,1.000,0.0000,0.0000,0.0000,0.0000,0.0000,0.0000,0
2026-04-17,14:48:18,8728,1,-7.9840,-3.1979,0.0875,2.5741,5.1414,0,1.0000,-998,1,6.5921,5.6778,-3.7675,42.6449,169.7174,0.000,0.000,1.000,0.0000,0.0000,0.0000,0.0000,0.0000,0.0000,0
2026-04-17,14:48:18,8763,1,-7.9840,-2.9842,0.0787,2.3152,5.1646,0,1.0000,-998,1,6.7916,-1.5831,-2.4522,39.3765,169.6507,0.000,0.000,1.000,0.0000,0.0000,0.0000,0.0000,0.0000,0.0000,0
2026-04-17,14:48:18,8799,1,-7.9840,-2.9602,0.0957,2.8135,5.1869,0,1.0000,-998,1,6.9291,1.9132,-2.8790,1.2025,169.7988,0.000,0.000,1.000,0.0000,0.0000,0.0000,0.0000,0.0000,0.0000,0
2026-04-17,14:48:18,8836,1,-7.9840,-3.0674,0.0930,2.7364,5.2101,0,1.0000,-998,1,6.4307,-11.7011,-4.2372,-28.4362,169.8455,0.000,0.000,1.000,0.0000,0.0000,0.0000,0.0000,0.0000,0.0000,0
2026-04-17,14:48:18,8869,1,-7.9840,-3.1015,0.0835,2.4557,5.2256,0,1.0000,-998,1,6.5360,-5.0974,-4.5456,-24.5953,169.8683,0.000,0.000,1.000,0.0000,0.0000,0.0000,0.0000,0.0000,0.0000,0
2026-04-17,14:48:18,8904,1,-7.9840,-3.0244,0.0847,2.4912,5.2561,0,1.0000,-998,1,6.6180,5.2164,-4.6904,-9.3645,169.9549,0.000,0.000,0.998,0.0000,0.0000,0.0000,0.0000,0.0000,0.0000,0
2026-04-17,14:48:18,8940,1,-7.9840,-3.1911,0.0976,2.8703,5.2799,0,1.0000,-998,1,6.5247,-5.0567,-4.7001,-5.7369,169.8959,0.000,0.000,0.995,0.0000,0.0000,0.0000,0.0000,0.0000,0.0000,0
2026-04-17,14:48:18,8976,1,-7.9840,-3.1808,0.0815,2.3981,5.3047,0,1.0000,-998,1,6.3937,0.9871,-4.6869,1.2858,169.8913,0.000,0.000,0.992,0.0000,0.0000,0.0000,0.0000,0.0000,0.0000,0
2026-04-17,14:48:18,9011,1,-7.9840,-3.0326,0.0975,2.8666,5.3280,0,1.0000,-998,1,6.7319,4.5515,-3.4734,24.7664,169.8621,0.000,0.000,0.989,0.0000,0.0000,0.0000,0.0000,0.0000,0.0000,0
2026-04-17,14:48:18,9047,1,-7.9840,-3.0356,0.0801,2.3556,5.3508,0,1.0000,-998,1,6.3623,-1.9564,-3.3006,7.8672,169.8326,0.000,0.000,0.986,0.0000,0.0000,0.0000,0.0000,0.0000,0.0000,0
2026-04-17,14:48:18,9082,1,-7.9840,-2.8217,0.0877,2.5808,5.3722,0,1.0000,-998,1,6.7465,-4.2799,-5.5369,-46.0039,169.8233,0.000,0.000,0.982,0.0000,0.0000,0.0000,0.0000,0.0000,0.0000,0
2026-04-17,14:48:19,9117,1,-7.9840,-2.6395,0.0891,2.6218,5.3933,0,1.0000,-998,1,6.5036,8.2480,-8.2118,-72.0154,169.7767,0.000,0.000,0.988,0.0000,0.0000,0.0000,0.0000,0.0000,0.0000,0
2026-04-17,14:48:19,9153,1,-7.9840,-2.8876,0.0815,2.3981,5.4146,0,1.0000,-998,1,6.1713,-22.9044,-10.5375,-69.4626,169.7463,0.000,0.000,1.000,0.0000,0.0000,0.0000,0.0000,0.0000,0.0000,0
2026-04-17,14:48:19,9188,1,-7.9840,-2.7828,0.0807,2.3747,5.4352,0,1.0000,-998,1,6.4928,8.8402,-11.7120,-46.3030,169.8257,0.000,0.000,1.000,0.0000,0.0000,0.0000,0.0000,0.0000,0.0000,0
2026-04-17,14:48:19,9223,1,-7.9840,-2.2871,0.0759,2.2338,5.4546,0,1.0000,-998,1,6.7376,14.6121,-11.2879,-4.6442,169.7669,0.000,0.000,1.000,0.0000,0.0000,0.0000,0.0000,0.0000,0.0000,0
2026-04-17,14:48:19,9259,1,-7.9840,-2.5318,0.0666,1.9586,5.4734,0,1.0000,-998,1,6.1518,-16.8049,-9.5203,34.1778,169.7417,0.000,0.000,1.000,0.0000,0.0000,0.0000,0.0000,0.0000,0.0000,0
2026-04-17,14:48:19,9295,1,-7.9840,-2.3730,0.0890,2.6188,5.4908,0,1.0000,-998,1,6.7834,12.0666,-8.3911,33.4520,169.7169,0.000,0.000,1.000,0.0000,0.0000,0.0000,0.0000,0.0000,0.0000,0
2026-04-17,14:48:19,9330,1,-7.9840,-2.6996,0.0926,2.7244,5.5096,0,1.0000,-998,1,5.9429,-21.5868,-7.1922,35.7387,169.7465,0.016,0.000,1.000,0.0000,0.0000,0.0000,0.0000,0.0000,0.0000,0
2026-04-17,14:48:19,9366,1,-7.9840,-2.6338,0.0673,1.9784,5.5301,0,1.0000,-998,1,6.4942,22.5697,-6.0375,37.2720,169.7185,0.032,0.000,1.000,0.0000,0.0000,0.0000,0.0000,0.0000,0.0000,0
2026-04-17,14:48:19,9401,1,-7.9840,-2.4511,0.0963,2.8331,5.5493,0,1.0000,-998,1,6.5291,-4.2493,-4.0417,55.6124,169.9218,0.000,0.000,1.000,0.0000,0.0000,0.0000,0.0000,0.0000,0.0000,0
2026-04-17,14:48:19,9436,1,-7.9840,-2.7705,0.1110,3.2658,5.5689,0,1.0000,-998,1,5.9331,-11.1777,-3.1064,34.7304,169.7359,0.016,0.000,1.000,0.0000,0.0000,0.0000,0.0000,0.0000,0.0000,0
2026-04-17,14:48:19,9472,1,-7.9840,-2.8030,0.0932,2.7414,5.5904,0,1.0000,-998,1,6.3056,4.6018,-3.9611,-8.3289,169.8617,0.000,0.000,1.000,0.0000,0.0000,0.0000,0.0000,0.0000,0.0000,0
2026-04-17,14:48:19,9507,1,-7.9840,-3.0564,0.0859,2.5275,5.6126,0,1.0000,-998,1,6.0059,-2.0989,-5.9807,-46.4906,169.7679,0.000,0.000,1.000,0.0000,0.0000,0.0000,0.0000,0.0000,0.0000,0
2026-04-17,14:48:19,9544,1,-7.9840,-3.0533,0.0938,2.7589,5.6373,0,1.0000,-998,1,6.4967,5.1312,-7.8736,-50.9291,169.7654,0.000,0.000,1.000,0.0000,0.0000,0.0000,0.0000,0.0000,0.0000,0
2026-04-17,14:48:19,9580,1,-7.9840,-3.3927,0.1026,3.0191,5.6619,0,1.0000,-998,1,5.9751,-11.5040,-7.9337,-16.5265,169.7267,0.000,0.000,1.000,0.0000,0.0000,0.0000,0.0000,0.0000,0.0000,0
2026-04-17,14:48:19,9615,1,-7.9840,-3.2810,0.1040,3.0590,5.6865,0,1.0000,-998,1,6.2336,3.0525,-7.5870,2.3641,169.6178,0.000,0.000,1.000,0.0000,0.0000,0.0000,0.0000,0.0000,0.0000,0
2026-04-17,14:48:19,9656,1,-7.9840,-3.4762,0.1051,3.0907,5.7124,0,1.0000,-998,1,6.1770,0.4908,-7.1718,5.0587,169.6436,0.000,0.000,1.000,0.0000,0.0000,0.0000,0.0000,0.0000,0.0000,0
2026-04-17,14:48:19,9690,1,-7.9840,-3.5853,0.0907,2.6665,5.7426,0,1.0000,-998,1,6.3744,11.7562,-5.7825,30.3287,169.6020,0.000,0.000,1.000,0.0000,0.0000,0.0000,0.0000,0.0000,0.0000,0
2026-04-17,14:48:19,9725,1,-7.9840,-3.2047,0.0965,2.8386,5.7681,0,1.0000,-998,1,6.3605,1.6005,-4.3633,39.2226,169.6473,0.000,0.000,1.000,0.0000,0.0000,0.0000,0.0000,0.0000,0.0000,0
2026-04-17,14:48:19,9761,1,-7.9840,-3.0968,0.0939,2.7611,5.7928,0,1.0000,-998,1,6.3098,4.4116,-4.3370,9.3908,169.5668,0.000,0.000,1.000,0.0000,0.0000,0.0000,0.0000,0.0000,0.0000,0
2026-04-17,14:48:19,9796,1,-7.9840,-3.1910,0.1022,3.0052,5.8170,0,1.0000,-998,1,6.1392,-3.6016,-4.6817,-0.9610,169.6979,0.000,0.000,1.000,0.0000,0.0000,0.0000,0.0000,0.0000,0.0000,0
2026-04-17,14:48:19,9832,1,-7.9840,-3.0472,0.0895,2.6335,5.8407,0,1.0000,-998,1,6.2300,-6.1452,-5.0038,-8.7479,169.5229,0.000,0.000,1.000,0.0000,0.0000,0.0000,0.0000,0.0000,0.0000,0
2026-04-17,14:48:19,9868,1,-7.9840,-3.0302,0.0832,2.4475,5.8637,0,1.0000,-998,1,6.2452,6.2814,-6.2179,-26.9371,169.6693,0.000,0.000,1.000,0.0000,0.0000,0.0000,0.0000,0.0000,0.0000,0
2026-04-17,14:48:19,9903,1,-7.9840,-2.7898,0.0903,2.6555,5.8859,0,1.0000,-998,1,6.3669,7.3202,-6.2746,-8.6116,169.6642,0.000,0.000,0.998,0.0000,0.0000,0.0000,0.0000,0.0000,0.0000,0
2026-04-17,14:48:19,9938,1,-7.9840,-3.0865,0.0985,2.8969,5.9080,0,1.0000,-998,1,5.8629,-12.1241,-4.7282,32.0277,169.7063,0.000,0.000,0.995,0.0000,0.0000,0.0000,0.0000,0.0000,0.0000,0
2026-04-17,14:48:19,9974,1,-7.9840,-3.1645,0.0905,2.6619,5.9323,0,1.0000,-998,1,6.1053,8.8587,-2.7283,51.8702,169.6626,0.000,0.000,0.992,0.0000,0.0000,0.0000,0.0000,0.0000,0.0000,0
2026-04-17,14:48:19,10009,1,-7.9840,-3.1076,0.0796,2.3419,5.9554,0,1.0000,-998,1,6.0126,-8.9062,-2.0766,27.5035,169.8214,0.000,0.000,1.000,0.0000,0.0000,0.0000,0.0000,0.0000,0.0000,0
2026-04-17,14:48:19,10045,1,-7.9840,-2.9794,0.0997,2.9319,5.9787,0,1.0000,-998,1,6.2529,13.5204,-2.5784,0.2798,169.7390,0.000,0.000,1.000,0.0000,0.0000,0.0000,0.0000,0.0000,0.0000,0
2026-04-17,14:48:19,10081,1,-7.9840,-3.1286,0.0970,2.8517,6.0029,0,1.0000,-998,1,5.5913,-22.8320,-2.0108,14.0831,169.8055,0.016,0.000,1.000,0.0000,0.0000,0.0000,0.0000,0.0000,0.0000,0
2026-04-17,14:48:20,10117,1,-7.9840,-3.3473,0.0949,2.7910,6.0275,0,1.0000,-998,1,5.7863,8.7064,-2.2128,-3.4148,169.7122,0.056,0.000,1.000,0.0000,0.0000,0.0000,0.0000,0.0000,0.0000,0
2026-04-17,14:48:20,10152,1,-7.9840,-2.6708,0.0957,2.8162,6.0506,0,1.0000,-998,1,6.3339,18.8923,-2.9225,-12.6568,169.7810,0.024,0.000,1.000,0.0000,0.0000,0.0000,0.0000,0.0000,0.0000,0
2026-04-17,14:48:20,10188,1,-7.9840,-2.8577,0.0801,2.3571,6.0720,0,1.0000,-998,1,5.6813,-17.3177,-2.0836,14.9081,169.6752,0.000,0.000,1.000,0.0000,0.0000,0.0000,0.0000,0.0000,0.0000,0
2026-04-17,14:48:20,10223,1,-7.9840,-2.5537,0.0815,2.3963,6.0926,0,1.0000,-998,1,6.2590,15.1481,-0.8536,30.7237,169.6402,0.000,0.000,1.000,0.0000,0.0000,0.0000,0.0000,0.0000,0.0000,0
2026-04-17,14:48:20,10259,1,-7.9840,-2.8438,0.0821,2.4160,6.1129,0,1.0000,-998,1,5.6462,-26.6540,0.5238,37.2881,169.5015,0.000,0.000,1.000,0.0000,0.0000,0.0000,0.0000,0.0000,0.0000,0
2026-04-17,14:48:20,10294,1,-7.9840,-3.0756,0.0902,2.6518,6.1358,0,1.0000,-998,1,5.9547,20.8034,1.2926,26.7800,169.4133,0.040,0.000,1.000,0.0000,0.0000,0.0000,0.0000,0.0000,0.0000,0
2026-04-17,14:48:20,10330,1,-7.9840,-3.2066,0.0843,2.4783,6.1601,0,1.0000,-998,1,5.6033,-13.5127,2.2688,31.0773,169.6068,0.008,0.000,1.000,0.0000,0.0000,0.0000,0.0000,0.0000,0.0000,0
2026-04-17,14:48:20,10366,1,-7.9840,-3.0839,0.1042,3.0639,6.1833,0,1.0000,-998,1,5.8970,7.9686,2.6564,14.6773,169.5028,0.000,0.000,1.000,0.0000,0.0000,0.0000,0.0000,0.0000,0.0000,0
2026-04-17,14:48:20,10401,1,-7.9840,-2.8326,0.0843,2.4784,6.2057,0,1.0000,-998,1,5.7366,-2.6596,0.3724,-46.4377,169.6490,0.000,0.000,1.000,0.0000,0.0000,0.0000,0.0000,0.0000,0.0000,0
2026-04-17,14:48:20,10434,1,-7.9840,-2.7569,0.0867,2.5496,6.2189,0,1.0000,-998,1,5.7746,-0.9134,-0.2797,-40.6774,169.7191,0.000,0.000,1.000,0.0000,0.0000,0.0000,0.0000,0.0000,0.0000,0
2026-04-17,14:48:20,10470,1,-7.9840,-2.8006,0.0841,2.4723,6.2471,0,1.0000,-998,1,5.4911,-1.2114,-3.6809,-86.8493,169.9263,0.008,0.000,1.000,0.0000,0.0000,0.0000,0.0000,0.0000,0.0000,0
2026-04-17,14:48:20,10505,1,-7.9840,-2.8845,0.0928,2.7306,6.2690,0,1.0000,-998,1,5.8083,1.2501,-7.1269,-99.3253,169.7420,0.000,0.000,1.000,0.0000,0.0000,0.0000,0.0000,0.0000,0.0000,0
2026-04-17,14:48:20,10541,1,-7.9840,-3.0653,0.0893,2.6265,6.2921,0,1.0000,-998,1,5.6683,-0.1603,-9.1761,-72.4467,169.7618,0.000,0.000,1.000,0.0000,0.0000,0.0000,0.0000,0.0000,0.0000,0
2026-04-17,14:48:20,10577,1,-7.9840,-3.3403,0.0931,2.7371,6.3170,0,1.0000,-998,1,5.6025,-3.5095,-8.4186,-9.2625,169.7573,0.000,0.000,1.000,0.0000,0.0000,0.0000,0.0000,0.0000,0.0000,0
2026-04-17,14:48:20,10613,1,-7.9840,-3.1583,0.0904,2.6595,6.3426,0,1.0000,-998,1,5.7557,10.9439,-7.0565,25.6217,169.7674,0.000,0.000,1.000,0.0000,0.0000,0.0000,0.0000,0.0000,0.0000,0
2026-04-17,14:48:20,10648,1,-7.9840,-3.3377,0.0863,2.5393,6.3673,0,1.0000,-998,1,5.2746,-15.2469,-4.9026,52.8075,169.7594,0.000,0.000,1.000,0.0000,0.0000,0.0000,0.0000,0.0000,0.0000,0
2026-04-17,14:48:20,10685,1,-7.9840,-3.0652,0.1011,2.9729,6.3918,0,1.0000,-998,1,6.0900,21.1273,-3.8159,41.7560,169.7249,0.000,0.000,1.000,0.0000,0.0000,0.0000,0.0000,0.0000,0.0000,0
2026-04-17,14:48:20,10720,1,-7.9840,-2.9621,0.0886,2.6046,6.4148,0,1.0000,-998,1,5.1058,-19.2879,-1.6168,60.0969,169.8287,0.016,0.000,1.000,0.0000,0.0000,0.0000,0.0000,0.0000,0.0000,0
2026-04-17,14:48:20,10755,1,-7.9840,-2.9656,0.0837,2.4620,6.4370,0,1.0000,-998,1,5.9095,14.6792,-0.0052,51.3287,169.7256,0.008,0.000,1.000,0.0000,0.0000,0.0000,0.0000,0.0000,0.0000,0
2026-04-17,14:48:20,10792,1,-7.9840,-2.5948,0.0962,2.8301,6.4597,0,1.0000,-998,1,5.8213,4.4710,0.1973,18.7367,169.9302,0.000,0.000,1.000,0.0000,0.0000,0.0000,0.0000,0.0000,0.0000,0
2026-04-17,14:48:20,10827,1,-7.9840,-2.7490,0.0866,2.5485,6.4799,0,1.0000,-998,1,5.4453,-16.3290,-0.1286,1.7619,169.8079,0.000,0.000,1.000,0.0000,0.0000,0.0000,0.0000,0.0000,0.0000,0
2026-04-17,14:48:20,10862,1,-7.9840,-3.0981,0.0879,2.5862,6.5021,0,1.0000,-998,1,5.5131,11.6582,0.2754,8.4821,169.9951,0.040,0.000,1.000,0.0000,0.0000,0.0000,0.0000,0.0000,0.0000,0
2026-04-17,14:48:20,10898,1,-7.9840,-3.0837,0.0742,2.1813,6.5262,0,1.0000,-998,1,5.4118,-7.7788,-0.0060,-5.1330,169.9077,0.008,0.000,1.000,0.0000,0.0000,0.0000,0.0000,0.0000,0.0000,0
2026-04-17,14:48:20,10933,1,-7.9840,-2.8736,0.1085,3.1914,6.5475,0,1.0000,-998,1,5.8595,7.1027,-1.0484,-24.9828,169.8016,0.000,0.000,1.000,0.0000,0.0000,0.0000,0.0000,0.0000,0.0000,0
2026-04-17,14:48:20,10968,1,-7.9840,-2.8525,0.0912,2.6811,6.5684,0,1.0000,-998,1,5.1265,-11.8804,-2.6900,-43.1339,169.5602,0.016,0.000,1.000,0.0000,0.0000,0.0000,0.0000,0.0000,0.0000,0
2026-04-17,14:48:20,11005,1,-7.9840,-3.1875,0.0984,2.8948,6.5930,0,1.0000,-998,1,5.3912,6.2341,-4.2702,-45.1375,169.6947,0.000,0.000,1.000,0.0000,0.0000,0.0000,0.0000,0.0000,0.0000,0
2026-04-17,14:48:20,11040,1,-7.9840,-3.0927,0.0831,2.4455,6.6171,0,1.0000,-998,1,5.2202,1.9933,-4.0816,-9.4445,169.7091,0.000,0.000,1.000,0.0000,0.0000,0.0000,0.0000,0.0000,0.0000,0
2026-04-17,14:48:20,11075,1,-7.9840,-3.0908,0.0956,2.8107,6.6401,0,1.0000,-998,1,5.8154,11.7312,-4.2233,-10.9472,169.7341,0.000,0.000,1.000,0.0000,0.0000,0.0000,0.0000,0.0000,0.0000,0
2026-04-17,14:48:21,11111,1,-7.9840,-3.1293,0.0923,2.7138,6.6641,0,1.0000,-998,1,5.4548,-3.0536,-6.1432,-43.2168,169.7719,0.000,0.000,1.000,0.0000,0.0000,0.0000,0.0000,0.0000,0.0000,0
2026-04-17,14:48:21,11147,1,-7.9840,-2.9030,0.1040,3.0581,6.6864,0,1.0000,-998,1,5.5862,-3.8896,-6.4433,-19.2490,169.7352,0.000,0.000,1.000,0.0000,0.0000,0.0000,0.0000,0.0000,0.0000,0
2026-04-17,14:48:21,11183,1,-7.9840,-3.0755,0.0884,2.6007,6.7098,0,1.0000,-998,1,5.0838,-5.7544,-5.6691,10.7560,169.8608,0.032,0.000,1.000,0.0000,0.0000,0.0000,0.0000,0.0000,0.0000,0
2026-04-17,14:48:21,11217,1,-7.9840,-3.2003,0.0952,2.7988,6.7248,0,1.0000,-998,1,5.1748,-1.7558,-5.4349,10.2799,169.8120,0.064,0.000,1.000,0.0000,0.0000,0.0000,0.0000,0.0000,0.0000,0
2026-04-17,14:48:21,11252,1,-7.9840,-3.3598,0.0897,2.6384,6.7572,0,1.0000,-998,1,4.5840,-22.1655,-4.1119,35.4139,169.9007,0.128,0.000,0.998,0.0000,0.0000,0.0000,0.0000,0.0000,0.0000,0
2026-04-17,14:48:21,11288,1,-7.9840,-3.0686,0.0886,2.6069,6.7803,0,1.0000,-998,1,5.2915,20.1771,-1.9625,53.1470,169.6961,0.144,0.000,1.000,0.0000,0.0000,0.0000,0.0000,0.0000,0.0000,0
2026-04-17,14:48:21,11323,1,-7.9840,-3.2568,0.0861,2.5330,6.8051,0,1.0000,-998,1,4.8304,-12.3062,-0.8796,41.2258,169.8097,0.112,0.000,0.998,0.0000,0.0000,0.0000,0.0000,0.0000,0.0000,0
2026-04-17,14:48:21,11358,1,-7.9840,-3.2052,0.1025,3.0160,6.8289,0,1.0000,-998,1,5.1207,7.3869,0.6014,45.2932,169.7307,0.080,0.000,1.000,0.0000,0.0000,0.0000,0.0000,0.0000,0.0000,0
2026-04-17,14:48:21,11394,1,-7.9840,-3.3777,0.1089,3.2019,6.8542,0,1.0000,-998,1,4.9457,-2.5501,0.7092,16.0588,169.7401,0.048,0.000,0.998,0.0000,0.0000,0.0000,0.0000,0.0000,0.0000,0
2026-04-17,14:48:21,11430,1,-7.9840,-3.2301,0.1098,3.2307,6.8786,0,1.0000,-998,1,5.1322,-7.3508,0.4863,0.4809,169.6590,0.016,0.000,1.000,0.0000,0.0000,0.0000,0.0000,0.0000,0.0000,0
2026-04-17,14:48:21,11466,1,-7.9840,-3.3515,0.0973,2.8621,6.9039,0,1.0000,-998,1,4.8751,1.4999,-0.9273,-30.4146,169.7558,0.000,0.000,0.997,0.0000,0.0000,0.0000,0.0000,0.0000,0.0000,0
2026-04-17,14:48:21,11502,1,-7.9840,-3.5034,0.0921,2.7091,6.9308,0,1.0000,-998,1,4.9669,3.6729,-1.8729,-29.5560,169.6137,0.000,0.000,0.994,0.0000,0.0000,0.0000,0.0000,0.0000,0.0000,0
2026-04-17,14:48:21,11537,1,-7.9840,-3.3511,0.0920,2.7048,6.9562,0,1.0000,-998,1,5.3173,2.9623,-1.7943,-6.1522,169.7048,0.000,0.000,1.000,0.0000,0.0000,0.0000,0.0000,0.0000,0.0000,0
2026-04-17,14:48:21,11572,1,-7.9840,-3.0896,0.1095,3.2197,6.9803,0,1.0000,-998,1,5.6067,15.6873,-1.6508,0.2428,169.6238,0.000,0.000,1.000,0.0000,0.0000,0.0000,0.0000,0.0000,0.0000,0
2026-04-17,14:48:21,11608,1,-7.9840,-3.3178,0.1191,3.5033,7.0041,0,1.0000,-998,1,5.0385,-24.8903,-0.4568,27.0190,169.5666,0.000,0.000,1.000,0.0000,0.0000,0.0000,0.0000,0.0000,0.0000,0
2026-04-17,14:48:21,11643,1,-7.9840,-3.3256,0.0971,2.8569,7.0292,0,1.0000,-998,1,5.2722,14.9344,0.8247,34.9291,169.5600,0.000,0.000,1.000,0.0000,0.0000,0.0000,0.0000,0.0000,0.0000,0
2026-04-17,14:48:21,11678,1,-7.9840,-3.5038,0.0852,2.5062,7.0555,0,1.0000,-998,1,5.1888,-5.5729,1.7815,28.4832,169.7184,0.000,0.000,1.000,0.0000,0.0000,0.0000,0.0000,0.0000,0.0000,0
2026-04-17,14:48:21,11714,1,-7.9840,-3.2504,0.1154,3.3943,7.0807,0,1.0000,-998,1,5.9326,12.9577,1.0358,-6.3340,169.6013,0.000,0.000,1.000,0.0000,0.0000,0.0000,0.0000,0.0000,0.0000,0
2026-04-17,14:48:21,11749,1,-7.9840,-3.4061,0.1145,3.3672,7.1057,0,1.0000,-998,1,4.9422,-17.7077,-0.2201,-31.9991,169.6586,0.016,0.000,0.998,0.0000,0.0000,0.0000,0.0000,0.0000,0.0000,0
2026-04-17,14:48:21,11784,1,-7.9840,-3.6850,0.1165,3.4264,7.1327,0,1.0000,-998,1,5.2949,3.2521,-2.1625,-50.4706,169.5717,0.000,0.000,1.000,0.0000,0.0000,0.0000,0.0000,0.0000,0.0000,0
2026-04-17,14:48:21,11820,1,-7.9840,-3.8962,0.1097,3.2263,7.1621,0,1.0000,-998,1,5.1004,-12.9688,-3.2764,-38.2171,169.7479,0.000,0.000,1.000,0.0000,0.0000,0.0000,0.0000,0.0000,0.0000,0
2026-04-17,14:48:21,11856,1,-7.9840,-3.2563,0.1329,3.9101,7.1900,0,1.0000,-998,1,5.8247,36.8652,-3.4994,-16.9834,169.6429,0.000,0.000,1.000,0.0000,0.0000,0.0000,0.0000,0.0000,0.0000,0
2026-04-17,14:48:21,11891,1,-7.9840,-3.1955,0.1114,3.2761,7.2131,0,1.0000,-998,1,5.2398,-42.2208,-3.0944,4.1788,169.7647,0.000,0.000,1.000,0.0000,0.0000,0.0000,0.0000,0.0000,0.0000,0
2026-04-17,14:48:21,11927,1,-7.9840,-3.3712,0.1064,3.1281,7.2390,0,1.0000,-998,1,5.3085,20.8696,-2.2849,17.2355,169.7337,0.040,0.000,1.000,0.0000,0.0000,0.0000,0.0000,0.0000,0.0000,0
2026-04-17,14:48:21,11962,1,-7.9840,-3.5468,0.0874,2.5700,7.2652,0,1.0000,-998,1,5.4053,-8.3228,-1.6880,18.6425,169.6852,0.008,0.000,1.000,0.0000,0.0000,0.0000,0.0000,0.0000,0.0000,0
2026-04-17,14:48:21,12003,1,-7.9840,-3.2258,0.0972,2.8585,7.2938,0,1.0000,-998,1,5.6935,5.0912,-1.3999,16.1628,169.6398,0.000,0.000,1.000,0.0000,0.0000,0.0000,0.0000,0.0000,0.0000,0
2026-04-17,14:48:21,12039,1,-7.9840,-3.1858,0.0871,2.5621,7.3188,0,1.0000,-998,1,5.3479,-10.3331,-1.8709,-9.3333,169.7271,0.000,0.000,1.000,0.0000,0.0000,0.0000,0.0000,0.0000,0.0000,0
2026-04-17,14:48:21,12074,1,-7.9840,-3.2676,0.0972,2.8601,7.3427,0,1.0000,-998,1,5.2962,0.9283,-3.0199,-22.2064,169.5908,0.000,0.000,1.000,0.0000,0.0000,0.0000,0.0000,0.0000,0.0000,0
2026-04-17,14:48:22,12110,1,-7.9840,-2.9935,0.0904,2.6584,7.3662,0,1.0000,-998,1,5.6437,11.0256,-3.2024,-12.8291,169.6286,0.000,0.000,1.000,0.0000,0.0000,0.0000,0.0000,0.0000,0.0000,0
2026-04-17,14:48:22,12146,1,-7.9840,-3.2119,0.0959,2.8217,7.3910,0,1.0000,-998,1,5.2476,-11.7249,-3.7035,-13.9536,169.6380,0.000,0.000,0.998,0.0000,0.0000,0.0000,0.0000,0.0000,0.0000,0
2026-04-17,14:48:22,12181,1,-7.9840,-3.4408,0.0908,2.6719,7.4162,0,1.0000,-998,1,5.2915,5.8738,-3.2608,4.0871,169.7117,0.000,0.000,0.994,0.0000,0.0000,0.0000,0.0000,0.0000,0.0000,0
2026-04-17,14:48:22,12217,1,-7.9840,-3.3302,0.1019,2.9971,7.4417,0,1.0000,-998,1,5.3979,-6.5367,-3.1993,3.7977,169.6783,0.000,0.000,0.991,0.0000,0.0000,0.0000,0.0000,0.0000,0.0000,0
2026-04-17,14:48:22,12252,1,-7.9840,-3.5055,0.1158,3.4050,7.4676,0,1.0000,-998,1,5.1846,2.4740,-2.9951,2.5421,169.7255,0.000,0.000,0.988,0.0000,0.0000,0.0000,0.0000,0.0000,0.0000,0
2026-04-17,14:48:22,12287,1,-7.9840,-3.6011,0.1018,2.9952,7.4938,0,1.0000,-998,1,5.2278,-6.7962,-3.2455,-5.3591,169.7533,0.000,0.000,0.985,0.0000,0.0000,0.0000,0.0000,0.0000,0.0000,0
2026-04-17,14:48:22,12323,1,-7.9840,-3.6283,0.1193,3.5077,7.5215,0,1.0000,-998,1,5.0749,3.1679,-4.3122,-21.1486,169.7561,0.000,0.000,0.982,0.0000,0.0000,0.0000,0.0000,0.0000,0.0000,0
2026-04-17,14:48:22,12359,1,-7.9840,-3.5694,0.1058,3.1120,7.5489,0,1.0000,-998,1,5.6239,6.4628,-5.2722,-25.2440,169.7536,0.000,0.000,0.978,0.0000,0.0000,0.0000,0.0000,0.0000,0.0000,0
2026-04-17,14:48:22,12395,1,-7.9840,-3.8046,0.1100,3.2360,7.5776,0,1.0000,-998,1,4.9423,-9.0832,-5.9489,-21.7267,169.7446,0.000,0.000,0.975,0.0000,0.0000,0.0000,0.0000,0.0000,0.0000,0
2026-04-17,14:48:22,12431,1,-7.9840,-3.9453,0.1023,3.0087,7.6079,0,1.0000,-998,1,5.2064,6.6178,-5.8441,-3.9868,169.6621,0.000,0.000,1.000,0.0000,0.0000,0.0000,0.0000,0.0000,0.0000,0
2026-04-17,14:48:22,12466,1,-7.9840,-3.8404,0.1128,3.3187,7.6373,0,1.0000,-998,1,5.4200,1.9048,-4.7518,23.0326,169.7279,0.000,0.000,1.000,0.0000,0.0000,0.0000,0.0000,0.0000,0.0000,0
2026-04-17,14:48:22,12501,1,-7.9840,-3.9979,0.0964,2.8366,7.6671,0,1.0000,-998,1,5.2238,6.8743,-3.4399,33.7028,169.6137,0.000,0.000,0.998,0.0000,0.0000,0.0000,0.0000,0.0000,0.0000,0
2026-04-17,14:48:22,12537,1,-7.9840,-3.6497,0.1202,3.5347,7.6959,0,1.0000,-998,1,5.3616,-8.3736,-2.8447,20.9241,169.6287,0.000,0.000,1.000,0.0000,0.0000,0.0000,0.0000,0.0000,0.0000,0
2026-04-17,14:48:22,12573,1,-7.9840,-3.8520,0.1166,3.4282,7.7251,0,1.0000,-998,1,4.6160,-13.3781,-2.5252,11.7738,169.6507,0.032,0.000,0.998,0.0000,0.0000,0.0000,0.0000,0.0000,0.0000,0
2026-04-17,14:48:22,12608,1,-7.9840,-3.9356,0.0952,2.7992,7.7542,0,1.0000,-998,1,5.5007,21.5438,-3.0177,-7.0186,169.6241,0.024,0.000,1.000,0.0000,0.0000,0.0000,0.0000,0.0000,0.0000,0
2026-04-17,14:48:22,12644,1,-7.9840,-3.5262,0.0975,2.8682,7.7822,0,1.0000,-998,1,5.1010,-8.8678,-3.2478,-5.7507,169.6854,0.000,0.000,1.000,0.0000,0.0000,0.0000,0.0000,0.0000,0.0000,0
2026-04-17,14:48:22,12680,1,-7.9840,-3.2577,0.1064,3.1282,7.8087,0,1.0000,-998,1,5.3827,17.6756,-3.1750,0.2726,169.7350,0.000,0.000,0.998,0.0000,0.0000,0.0000,0.0000,0.0000,0.0000,0
2026-04-17,14:48:22,12716,1,-7.9840,-3.4909,0.1011,2.9740,7.8345,0,1.0000,-998,1,5.0190,-17.6074,-2.6730,8.7911,169.7442,0.000,0.000,0.994,0.0000,0.0000,0.0000,0.0000,0.0000,0.0000,0
2026-04-17,14:48:22,12752,1,-7.9840,-3.7437,0.1111,3.2676,7.8640,0,1.0000,-998,1,5.2109,19.7025,-1.9890,17.3445,169.7641,0.000,0.000,0.991,0.0000,0.0000,0.0000,0.0000,0.0000,0.0000,0
2026-04-17,14:48:22,12785,1,-7.9840,-3.7206,0.0946,2.7829,7.8814,0,1.0000,-998,1,5.2986,12.6422,-1.7683,15.0492,169.7609,0.000,0.000,0.990,0.0000,0.0000,0.0000,0.0000,0.0000,0.0000,0
2026-04-17,14:48:22,12821,1,-7.9840,-3.6336,0.1131,3.3256,7.9170,0,1.0000,-998,1,5.2063,1.7688,-0.9516,21.2832,169.7209,0.000,0.000,0.986,0.0000,0.0000,0.0000,0.0000,0.0000,0.0000,0
2026-04-17,14:48:22,12857,1,-7.9840,-3.8023,0.1096,3.2228,7.9457,0,1.0000,-998,1,5.0777,-0.3164,-1.5671,-5.9206,169.7512,0.000,0.000,0.983,0.0000,0.0000,0.0000,0.0000,0.0000,0.0000,0
2026-04-17,14:48:22,12892,1,-7.9840,-3.9285,0.0925,2.7216,7.9751,0,1.0000,-998,1,5.0338,-2.4773,-2.7081,-29.6222,169.6055,0.000,0.000,0.980,0.0000,0.0000,0.0000,0.0000,0.0000,0.0000,0
2026-04-17,14:48:22,12928,1,-3.5487,-3.4132,0.1129,3.3214,8.0023,0,1.0000,-998,0,5.6535,11.4506,-4.0692,-33.6591,169.5559,0.000,0.000,0.977,0.0000,0.0000,0.0000,0.0000,0.0000,0.0000,0
2026-04-17,14:48:22,12963,1,-3.5487,-3.5331,0.1237,3.6389,8.0300,0,1.0000,-998,0,4.8686,-8.1114,-4.0617,-9.6669,169.5762,0.000,0.000,0.974,0.0000,0.0000,0.0000,0.0000,0.0000,0.0000,0
2026-04-17,14:48:22,12998,1,-3.5487,-3.6707,0.1494,4.3952,8.0574,0,1.0000,-998,0,5.3306,5.6924,-3.3158,10.0396,169.5288,0.000,0.000,1.000,0.0000,0.0000,0.0000,0.0000,0.0000,0.0000,0
2026-04-17,14:48:22,13033,1,-3.5487,-3.5770,0.1517,4.4606,8.0845,0,1.0000,-998,0,5.0481,-5.9922,-2.5733,14.8069,169.5615,0.000,0.000,1.000,0.0000,0.0000,0.0000,0.0000,0.0000,0.0000,0
2026-04-17,14:48:22,13069,1,-3.5487,-3.5407,0.1559,4.5858,8.1121,0,1.0000,-998,0,4.9219,-2.0813,-2.5744,2.0998,169.5954,0.000,0.000,0.998,0.0000,0.0000,0.0000,0.0000,0.0000,0.0000,0
2026-04-17,14:48:23,13104,1,-3.5487,-3.5668,0.1533,4.5093,8.1384,0,1.0000,-998,0,4.8200,-9.9044,-3.1827,-13.7741,169.6075,0.000,0.000,0.998,0.0000,0.0000,0.0000,0.0000,0.0000,0.0000,0
2026-04-17,14:48:23,13139,1,-3.5487,-3.4711,0.1320,3.8819,8.1641,0,1.0000,-998,0,5.0517,8.9410,-4.6692,-33.6172,169.5913,0.000,0.000,1.000,0.0000,0.0000,0.0000,0.0000,0.0000,0.0000,0
2026-04-17,14:48:23,13174,1,-3.5487,-3.3748,0.1048,3.0819,8.1893,0,1.0000,-998,0,5.0549,2.2064,-6.2028,-40.9175,169.6053,0.000,0.000,1.000,0.0000,0.0000,0.0000,0.0000,0.0000,0.0000,0
2026-04-17,14:48:23,13209,1,-3.5204,-3.4320,0.0968,2.8475,8.2152,0,1.0000,-998,0,5.1993,6.7080,-7.0648,-31.5412,169.6305,0.000,0.000,1.000,0.0000,0.0000,0.0000,0.0000,0.0000,0.0000,0
2026-04-17,14:48:23,13244,1,-3.5204,-3.4484,0.0921,2.7079,8.2414,0,1.0000,-998,0,5.2108,2.6636,-7.1176,-14.2322,169.6632,0.000,0.000,1.000,0.0000,0.0000,0.0000,0.0000,0.0000,0.0000,0
2026-04-17,14:48:23,13280,1,-3.2981,-3.3276,0.0973,2.8616,8.2673,0,1.0000,-998,0,5.3678,5.1573,-6.7298,4.9621,169.5891,0.000,0.000,1.000,0.0000,0.0000,0.0000,0.0000,0.0000,0.0000,0
2026-04-17,14:48:23,13315,1,-3.2981,-3.2171,0.0968,2.8478,8.2921,0,1.0000,-998,0,5.0817,-5.3703,-5.7955,24.1009,169.6704,0.000,0.000,1.000,0.0000,0.0000,0.0000,0.0000,0.0000,0.0000,0
2026-04-17,14:48:23,13350,1,-3.2981,-3.4663,0.1152,3.3884,8.3171,0,1.0000,-998,0,5.1002,-4.5273,-4.4255,33.8577,169.6600,0.000,0.000,1.000,0.0000,0.0000,0.0000,0.0000,0.0000,0.0000,0
2026-04-17,14:48:23,13385,1,-3.2981,-3.2485,0.1007,2.9629,8.3415,0,1.0000,-998,0,5.1095,3.4738,-4.2165,18.5040,169.6955,0.000,0.000,1.000,0.0000,0.0000,0.0000,0.0000,0.0000,0.0000,0
2026-04-17,14:48:23,13420,1,-3.2981,-3.3180,0.1129,3.3206,8.3668,0,1.0000,-998,0,5.0280,-4.4523,-4.1214,3.3717,169.7036,0.000,0.000,1.000,0.0000,0.0000,0.0000,0.0000,0.0000,0.0000,0
2026-04-17,14:48:23,13455,1,-7.9840,-3.7475,0.0917,2.6972,8.3928,0,1.0000,-998,1,4.8679,-7.8451,-4.5869,-8.1404,169.7237,0.000,0.000,0.999,0.0000,0.0000,0.0000,0.0000,0.0000,0.0000,0
2026-04-17,14:48:23,13490,1,-7.9840,-3.3654,0.1098,3.2295,8.4197,0,1.0000,-998,1,5.2771,33.1449,-5.3402,-17.9127,169.7488,0.016,0.000,1.000,0.0000,0.0000,0.0000,0.0000,0.0000,0.0000,0
2026-04-17,14:48:23,13525,1,-7.9840,-3.6171,0.1178,3.4653,8.4470,0,1.0000,-998,1,4.5235,-38.5565,-5.6939,-10.8448,169.7805,0.000,0.000,0.998,0.0000,0.0000,0.0000,0.0000,0.0000,0.0000,0
2026-04-17,14:48:23,13564,1,-7.9840,-3.9000,0.1116,3.2833,8.4753,0,1.0000,-998,1,4.6901,-14.3803,-5.6265,-6.8330,169.7139,0.048,0.000,0.996,0.0000,0.0000,0.0000,0.0000,0.0000,0.0000,0
2026-04-17,14:48:23,13599,1,-7.9840,-3.5403,0.1077,3.1691,8.5062,0,1.0000,-998,1,4.5834,-9.8152,-5.0444,9.6016,169.7070,0.112,0.000,0.993,0.0000,0.0000,0.0000,0.0000,0.0000,0.0000,0
2026-04-17,14:48:23,13635,1,-7.9840,-3.5501,0.1198,3.5232,8.5332,0,1.0000,-998,1,4.5463,-1.6985,-4.1979,19.8778,169.7000,0.176,0.000,0.990,0.0000,0.0000,0.0000,0.0000,0.0000,0.0000,0
2026-04-17,14:48:23,13671,1,-7.9840,-3.5784,0.1072,3.1524,8.5597,0,1.0000,-998,1,4.8909,-1.5754,-4.4149,3.5536,169.7633,0.144,0.000,0.995,0.0000,0.0000,0.0000,0.0000,0.0000,0.0000,0
2026-04-17,14:48:23,13706,1,-7.9840,-3.4531,0.1034,3.0413,8.5858,0,1.0000,-998,1,4.5516,0.6951,-5.2832,-17.2165,169.7131,0.112,0.000,0.992,0.0000,0.0000,0.0000,0.0000,0.0000,0.0000,0
2026-04-17,14:48:23,13742,1,-7.9840,-3.4899,0.0926,2.7236,8.6125,0,1.0000,-998,1,4.7888,-4.3642,-6.5499,-36.5604,169.7671,0.080,0.000,0.989,0.0000,0.0000,0.0000,0.0000,0.0000,0.0000,0
2026-04-17,14:48:23,13778,1,-7.9840,-3.5633,0.1130,3.3250,8.6398,0,1.0000,-998,1,4.9808,12.8204,-7.4615,-30.6567,169.8185,0.048,0.000,0.986,0.0000,0.0000,0.0000,0.0000,0.0000,0.0000,0
2026-04-17,14:48:23,13813,1,-7.9840,-3.7609,0.1193,3.5095,8.6677,0,1.0000,-998,1,4.6268,-8.9906,-7.4518,-6.8368,169.8022,0.016,0.000,0.982,0.0000,0.0000,0.0000,0.0000,0.0000,0.0000,0
2026-04-17,14:48:23,13848,1,-7.9840,-4.0252,0.1198,3.5225,8.6970,0,1.0000,-998,1,4.4450,-7.3225,-7.7144,-8.4508,169.8569,0.000,0.000,0.979,0.0000,0.0000,0.0000,0.0000,0.0000,0.0000,0
2026-04-17,14:48:23,13884,1,-7.9840,-4.2520,0.1190,3.5013,8.7286,0,1.0000,-998,1,4.6382,0.2572,-6.7744,19.3179,169.8214,0.000,0.000,0.976,0.0000,0.0000,0.0000,0.0000,0.0000,0.0000,0
2026-04-17,14:48:23,13919,1,-7.9840,-4.1922,0.1095,3.2214,8.7605,0,1.0000,-998,1,4.6471,11.1191,-5.3317,36.4571,169.8695,0.000,0.000,0.973,0.0000,0.0000,0.0000,0.0000,0.0000,0.0000,0
2026-04-17,14:48:23,13954,1,-7.9840,-4.0457,0.0994,2.9234,8.7914,0,1.0000,-998,1,4.7134,-4.6691,-3.4859,50.1180,169.8833,0.000,0.000,0.970,0.0000,0.0000,0.0000,0.0000,0.0000,0.0000,0
2026-04-17,14:48:23,13990,1,-7.9840,-3.7563,0.1175,3.4547,8.8204,0,1.0000,-998,1,4.9741,13.4839,-3.3959,16.3793,169.9184,0.000,0.000,0.966,0.0000,0.0000,0.0000,0.0000,0.0000,0.0000,0
2026-04-17,14:48:23,14025,1,-7.9840,-3.9022,0.1072,3.1541,8.8492,0,1.0000,-998,1,4.4252,-17.7967,-3.2581,10.9979,169.7415,0.000,0.000,0.963,0.0000,0.0000,0.0000,0.0000,0.0000,0.0000,0
2026-04-17,14:48:23,14060,1,-7.9840,-3.7394,0.1152,3.3872,8.8789,0,1.0000,-998,1,4.9217,22.9589,-3.2396,1.7756,169.7663,0.000,0.000,0.960,0.0000,0.0000,0.0000,0.0000,0.0000,0.0000,0
2026-04-17,14:48:24,14096,1,-7.9840,-3.8203,0.0965,2.8396,8.9081,0,1.0000,-998,1,4.2837,-23.9440,-2.5793,20.1989,169.7169,0.000,0.000,0.966,0.0000,0.0000,0.0000,0.0000,0.0000,0.0000,0
2026-04-17,14:48:24,14131,1,-7.9840,-3.2786,0.1153,3.3907,8.9350,0,1.0000,-998,1,5.3674,35.6667,-1.6654,23.6548,169.6768,0.000,0.000,0.980,0.0000,0.0000,0.0000,0.0000,0.0000,0.0000,0
2026-04-17,14:48:24,14167,1,-7.9840,-3.6185,0.1129,3.3193,8.9617,0,1.0000,-998,1,4.1490,-38.0816,-1.7151,0.5841,169.7652,0.000,0.000,0.994,0.0000,0.0000,0.0000,0.0000,0.0000,0.0000,0
2026-04-17,14:48:24,14202,1,-7.9840,-3.8329,0.1015,2.9862,8.9895,0,1.0000,-998,1,4.6763,22.0342,-3.0273,-26.2233,169.7466,0.040,0.000,0.991,0.0000,0.0000,0.0000,0.0000,0.0000,0.0000,0
2026-04-17,14:48:24,14238,1,-7.9840,-3.6496,0.1044,3.0706,9.0177,0,1.0000,-998,1,4.6575,-11.4856,-4.3412,-36.4284,169.8413,0.008,0.000,0.988,0.0000,0.0000,0.0000,0.0000,0.0000,0.0000,0
2026-04-17,14:48:24,14274,1,-7.9840,-3.3757,0.1091,3.2074,9.0434,0,1.0000,-998,1,4.8340,-0.5197,-4.9344,-23.2547,169.8044,0.000,0.000,0.985,0.0000,0.0000,0.0000,0.0000,0.0000,0.0000,0
2026-04-17,14:48:24,14310,1,-7.9840,-3.5175,0.1050,3.0896,9.0696,0,1.0000,-998,1,4.5508,-1.6915,-5.7167,-22.1151,169.9090,0.000,0.000,0.982,0.0000,0.0000,0.0000,0.0000,0.0000,0.0000,0
2026-04-17,14:48:24,14348,1,-7.9840,-3.6089,0.0951,2.7961,9.0981,0,1.0000,-998,1,4.5627,-0.3255,-5.6495,-14.3800,169.8785,0.000,0.000,0.979,0.0000,0.0000,0.0000,0.0000,0.0000,0.0000,0
2026-04-17,14:48:24,14384,1,-7.9840,-3.0499,0.1146,3.3720,9.1258,0,1.0000,-998,1,5.2676,28.1058,-5.1596,6.3545,169.9778,0.000,0.000,0.985,0.0000,0.0000,0.0000,0.0000,0.0000,0.0000,0
2026-04-17,14:48:24,14419,1,-7.9840,-3.1331,0.0979,2.8806,9.1494,0,1.0000,-998,1,4.3132,-30.3300,-3.5937,33.2816,169.8468,0.000,0.000,0.990,0.0000,0.0000,0.0000,0.0000,0.0000,0.0000,0
2026-04-17,14:48:24,14455,1,-7.9840,-3.5533,0.1072,3.1528,9.1757,0,1.0000,-998,1,4.6794,11.0658,-3.0191,23.2130,169.8007,0.016,0.000,0.987,0.0000,0.0000,0.0000,0.0000,0.0000,0.0000,0
2026-04-17,14:48:24,14491,1,-7.9840,-3.2607,0.1063,3.1259,9.2019,0,1.0000,-998,1,4.7853,4.3278,-3.1487,2.2264,169.7986,0.000,0.000,0.984,0.0000,0.0000,0.0000,0.0000,0.0000,0.0000,0
2026-04-17,14:48:24,14526,1,-7.9840,-3.2969,0.0938,2.7585,9.2262,0,1.0000,-998,1,4.6260,-7.5056,-3.3195,-0.0858,169.7659,0.000,0.000,0.981,0.0000,0.0000,0.0000,0.0000,0.0000,0.0000,0
2026-04-17,14:48:24,14561,1,-7.9840,-3.5435,0.0976,2.8696,9.2523,0,1.0000,-998,1,5.0092,10.4050,-3.7936,-8.4872,169.8679,0.000,0.000,0.978,0.0000,0.0000,0.0000,0.0000,0.0000,0.0000,0
2026-04-17,14:48:24,14598,1,-7.9840,-3.5453,0.0864,2.5424,9.2805,0,1.0000,-998,1,4.3756,-8.1714,-3.6927,0.3451,169.8693,0.000,0.000,0.974,0.0000,0.0000,0.0000,0.0000,0.0000,0.0000,0
2026-04-17,14:48:24,14633,1,-7.9840,-3.1544,0.1010,2.9698,9.3048,0,1.0000,-998,1,4.8885,3.7833,-3.2851,5.2058,169.9299,0.000,0.000,0.971,0.0000,0.0000,0.0000,0.0000,0.0000,0.0000,0
2026-04-17,14:48:24,14669,1,-7.9840,-3.4865,0.1007,2.9622,9.3298,0,1.0000,-998,1,4.2529,-12.8869,-3.3016,5.7419,169.9160,0.016,0.000,0.968,0.0000,0.0000,0.0000,0.0000,0.0000,0.0000,0
2026-04-17,14:48:24,14704,1,-7.9840,-3.6980,0.1086,3.1951,9.3573,0,1.0000,-998,1,4.7968,11.8467,-2.2720,23.8044,169.8971,0.000,0.000,0.965,0.0000,0.0000,0.0000,0.0000,0.0000,0.0000,0
2026-04-17,14:48:24,14739,1,-7.9840,-3.4402,0.1168,3.4340,9.3840,0,1.0000,-998,1,4.3529,-8.4109,-1.7685,16.1025,169.9063,0.000,0.000,0.962,0.0000,0.0000,0.0000,0.0000,0.0000,0.0000,0
2026-04-17,14:48:24,14775,1,-7.9840,-3.3966,0.0986,2.9010,9.4094,0,1.0000,-998,1,4.7266,4.9573,-1.1158,19.4144,169.7870,0.000,0.000,0.958,0.0000,0.0000,0.0000,0.0000,0.0000,0.0000,0
2026-04-17,14:48:24,14810,1,-7.9840,-3.5636,0.0872,2.5660,9.4364,0,1.0000,-998,1,4.2300,-9.0805,-2.8710,-32.6715,169.8754,0.016,0.000,0.955,0.0000,0.0000,0.0000,0.0000,0.0000,0.0000,0
2026-04-17,14:48:24,14845,1,-7.9840,-3.2388,0.1005,2.9547,9.4611,0,1.0000,-998,1,5.2252,22.6473,-4.9704,-55.2128,169.6208,0.000,0.000,0.952,0.0000,0.0000,0.0000,0.0000,0.0000,0.0000,0
2026-04-17,14:48:24,14881,1,-7.9840,-3.3513,0.0890,2.6188,9.4866,0,1.0000,-998,1,3.7775,-26.6137,-5.4689,-28.4464,169.8369,0.032,0.000,0.949,0.0000,0.0000,0.0000,0.0000,0.0000,0.0000,0
2026-04-17,14:48:24,14916,1,-7.9840,-3.1824,0.1030,3.0302,9.5117,0,1.0000,-998,1,4.9699,28.5567,-5.9327,-16.0424,169.6521,0.024,0.000,0.946,0.0000,0.0000,0.0000,0.0000,0.0000,0.0000,0
2026-04-17,14:48:24,14951,1,-7.9840,-3.3292,0.0976,2.8692,9.5357,0,1.0000,-998,1,4.2407,-22.1980,-5.1264,11.3170,169.8721,0.000,0.000,0.942,0.0000,0.0000,0.0000,0.0000,0.0000,0.0000,0
2026-04-17,14:48:24,14987,1,-7.9840,-3.4179,0.0912,2.6834,9.5617,0,1.0000,-998,1,4.7033,13.9872,-3.8112,31.0606,169.6818,0.000,0.000,0.939,0.0000,0.0000,0.0000,0.0000,0.0000,0.0000,0
2026-04-17,14:48:24,15023,1,-7.9840,-3.3248,0.0837,2.4613,9.5876,0,1.0000,-998,1,4.4386,-12.5851,-2.9030,27.4338,169.9208,0.000,0.000,0.936,0.0000,0.0000,0.0000,0.0000,0.0000,0.0000,0
2026-04-17,14:48:24,15058,1,-7.9840,-3.1521,0.1128,3.3179,9.6119,0,1.0000,-998,1,4.7560,19.5979,-1.8304,29.0305,169.7768,0.000,0.000,0.933,0.0000,0.0000,0.0000,0.0000,0.0000,0.0000,0
2026-04-17,14:48:25,15094,1,-7.9840,-3.3503,0.1154,3.3931,9.6377,0,1.0000,-998,1,4.1675,-25.0538,-3.0448,-16.8661,169.9185,0.000,0.000,0.930,0.0000,0.0000,0.0000,0.0000,0.0000,0.0000,0
2026-04-17,14:48:25,15130,1,-7.9840,-3.4886,0.1129,3.3211,9.6538,0,1.0000,-998,1,4.2354,-13.2422,-3.4592,-16.0395,169.9235,0.032,0.000,0.928,0.0000,0.0000,0.0000,0.0000,0.0000,0.0000,0
2026-04-17,14:48:25,15171,1,-7.9840,-3.6524,0.1081,3.1808,9.6957,0,1.0000,-998,1,3.8166,-19.2008,-5.0026,-30.5250,170.0228,0.112,0.000,0.924,0.0000,0.0000,0.0000,0.0000,0.0000,0.0000,0
2026-04-17,14:48:25,15207,1,-7.9840,-3.5813,0.1243,3.6551,9.7237,0,1.0000,-998,1,4.6360,23.9562,-5.3903,-16.2528,169.8174,0.128,0.000,0.921,0.0000,0.0000,0.0000,0.0000,0.0000,0.0000,0
2026-04-17,14:48:25,15243,1,-7.9840,-3.6127,0.1066,3.1362,9.7503,0,1.0000,-998,1,4.3516,-22.4500,-4.6044,11.5695,169.9854,0.096,0.000,0.918,0.0000,0.0000,0.0000,0.0000,0.0000,0.0000,0
2026-04-17,14:48:25,15278,1,-7.9840,-3.8134,0.1105,3.2491,9.7776,0,1.0000,-998,1,4.4821,18.3635,-3.5932,25.6428,169.8161,0.088,0.000,0.914,0.0000,0.0000,0.0000,0.0000,0.0000,0.0000,0
2026-04-17,14:48:25,15314,1,-7.9840,-3.8459,0.0923,2.7152,9.8070,0,1.0000,-998,1,4.1365,-22.7611,-2.6401,27.5639,169.8386,0.056,0.000,0.911,0.0000,0.0000,0.0000,0.0000,0.0000,0.0000,0
2026-04-17,14:48:25,15349,1,-7.9840,-3.4337,0.1063,3.1275,9.8339,0,1.0000,-998,1,4.8612,29.9390,-2.3524,10.3407,169.7190,0.024,0.000,0.908,0.0000,0.0000,0.0000,0.0000,0.0000,0.0000,0
2026-04-17,14:48:25,15386,1,-7.9840,-3.6842,0.1072,3.1523,9.8621,0,1.0000,-998,1,4.2485,-20.4098,-2.8488,-7.5873,169.8443,0.000,0.000,0.905,0.0000,0.0000,0.0000,0.0000,0.0000,0.0000,0
2026-04-17,14:48:25,15422,1,-7.9840,-3.8529,0.0956,2.8123,9.8922,0,1.0000,-998,1,4.6060,16.5634,-3.4513,-14.7698,169.7618,0.000,0.000,0.902,0.0000,0.0000,0.0000,0.0000,0.0000,0.0000,0
2026-04-17,14:48:25,15457,1,-7.9840,-3.4612,0.0964,2.8346,9.9190,0,1.0000,-998,1,4.6416,-4.4959,-4.1585,-20.7950,169.7871,0.000,0.000,0.898,0.0000,0.0000,0.0000,0.0000,0.0000,0.0000,0
2026-04-17,14:48:25,15493,1,-7.9840,-3.3639,0.1009,2.9666,9.9455,0,1.0000,-998,1,4.7751,13.9080,-4.3674,-11.5521,169.7226,0.000,0.000,0.895,0.0000,0.0000,0.0000,0.0000,0.0000,0.0000,0
2026-04-17,14:48:25,15528,1,-7.9840,-3.5540,0.1019,2.9985,9.9721,0,1.0000,-998,1,4.6142,-15.4299,-3.9813,4.0417,169.7478,0.000,0.000,0.892,0.0000,0.0000,0.0000,0.0000,0.0000,0.0000,0
2026-04-17,14:48:25,15564,1,-7.9840,-3.3958,0.1149,3.3792,9.9999,0,1.0000,-998,1,4.6549,13.6277,-3.0657,20.9685,169.7375,0.000,0.000,0.889,0.0000,0.0000,0.0000,0.0000,0.0000,0.0000,0
2026-04-17,14:48:25,15600,1,-7.9840,-3.6047,0.1049,3.0840,10.0259,0,1.0000,-998,1,4.4171,-23.2089,-2.3406,24.7259,169.6815,0.000,0.000,0.886,0.0000,0.0000,0.0000,0.0000,0.0000,0.0000,0
2026-04-17,14:48:25,15636,1,-7.9840,-3.5755,0.1083,3.1860,10.0537,0,1.0000,-998,1,4.6992,26.9163,-1.8227,17.7508,169.8154,0.024,0.000,0.882,0.0000,0.0000,0.0000,0.0000,0.0000,0.0000,0
2026-04-17,14:48:25,15671,1,-7.9840,-3.2975,0.1081,3.1809,10.0783,0,1.0000,-998,1,4.9444,-22.5263,-2.9406,-22.1079,169.7372,0.000,0.000,0.879,0.0000,0.0000,0.0000,0.0000,0.0000,0.0000,0
2026-04-17,14:48:25,15707,1,-7.9840,-3.5500,0.1087,3.1970,10.1051,0,1.0000,-998,1,4.1251,4.9029,-4.0553,-28.5489,169.7603,0.048,0.000,0.876,0.0000,0.0000,0.0000,0.0000,0.0000,0.0000,0
2026-04-17,14:48:25,15742,1,-7.9840,-3.6156,0.0876,2.5755,10.1323,0,1.0000,-998,1,4.6674,3.5379,-4.8597,-25.9799,169.7845,0.016,0.000,0.873,0.0000,0.0000,0.0000,0.0000,0.0000,0.0000,0
2026-04-17,14:48:25,15777,1,-7.9840,-3.1079,0.1064,3.1297,10.1572,0,1.0000,-998,1,4.8165,11.4223,-4.6498,-0.6244,169.8711,0.000,0.000,0.870,0.0000,0.0000,0.0000,0.0000,0.0000,0.0000,0
2026-04-17,14:48:25,15814,1,-7.9840,-3.3113,0.1063,3.1278,10.1831,0,1.0000,-998,1,4.6313,-7.5895,-3.7334,15.2518,169.8098,0.000,0.000,0.866,0.0000,0.0000,0.0000,0.0000,0.0000,0.0000,0
2026-04-17,14:48:25,15850,1,-7.9840,-3.6967,0.1101,3.2376,10.2098,0,1.0000,-998,1,4.5164,-3.9079,-2.6217,30.0350,169.8025,0.000,0.000,0.863,0.0000,0.0000,0.0000,0.0000,0.0000,0.0000,0
2026-04-17,14:48:25,15885,1,-7.9840,-3.4307,0.1141,3.3556,10.2363,0,1.0000,-998,1,4.7214,9.2353,-1.3015,40.5052,169.8477,0.000,0.000,0.860,0.0000,0.0000,0.0000,0.0000,0.0000,0.0000,0
2026-04-17,14:48:25,15919,1,-7.9840,-3.1374,0.1061,3.1212,10.2520,0,1.0000,-998,1,4.8284,7.4724,-0.7999,35.9200,169.8705,0.000,0.000,0.858,0.0000,0.0000,0.0000,0.0000,0.0000,0.0000,0
2026-04-17,14:48:25,15955,1,-7.9840,-3.4390,0.1085,3.1916,10.2846,0,1.0000,-998,1,4.6880,3.2887,0.1566,32.6684,169.7768,0.000,0.000,0.855,0.0000,0.0000,0.0000,0.0000,0.0000,0.0000,0
2026-04-17,14:48:25,15990,1,-7.9840,-3.5185,0.1010,2.9699,10.3111,0,1.0000,-998,1,4.5853,-2.7011,0.3296,11.5041,169.8260,0.000,0.000,0.852,0.0000,0.0000,0.0000,0.0000,0.0000,0.0000,0
2026-04-17,14:48:25,16026,1,-7.9840,-3.3930,0.1176,3.4595,10.3387,0,1.0000,-998,1,4.5547,2.8167,-0.6672,-16.8171,169.7269,0.000,0.000,0.849,0.0000,0.0000,0.0000,0.0000,0.0000,0.0000,0
2026-04-17,14:48:25,16062,1,-7.9840,-3.5920,0.1104,3.2479,10.3649,0,1.0000,-998,1,4.8450,-7.3923,-1.5082,-22.8234,169.7616,0.000,0.000,0.863,0.0000,0.0000,0.0000,0.0000,0.0000,0.0000,0
2026-04-17,14:48:26,16098,1,-7.9840,-3.8737,0.1140,3.3529,10.3925,0,1.0000,-998,1,4.5608,2.4802,-2.2078,-20.0469,169.8094,0.000,0.000,0.860,0.0000,0.0000,0.0000,0.0000,0.0000,0.0000,0
2026-04-17,14:48:26,16133,1,-7.9840,-3.8472,0.0963,2.8316,10.4215,0,1.0000,-998,1,4.6405,-8.1863,-2.6586,-15.2554,169.7895,0.000,0.000,0.857,0.0000,0.0000,0.0000,0.0000,0.0000,0.0000,0
2026-04-17,14:48:26,16168,1,-7.9840,-3.5770,0.1012,2.9767,10.4474,0,1.0000,-998,1,4.6568,0.4899,-2.1131,5.0303,169.7899,0.000,0.000,0.854,0.0000,0.0000,0.0000,0.0000,0.0000,0.0000,0
2026-04-17,14:48:26,16204,1,-7.9840,-3.7741,0.1010,2.9704,10.4758,0,1.0000,-998,1,4.4955,1.4603,-1.5860,12.4893,169.8206,0.000,0.000,0.850,0.0000,0.0000,0.0000,0.0000,0.0000,0.0000,0
2026-04-17,14:48:26,16239,1,-7.9840,-3.7249,0.0886,2.6049,10.5045,0,1.0000,-998,1,4.8827,5.5837,-1.9593,-4.0419,169.7221,0.000,0.000,0.847,0.0000,0.0000,0.0000,0.0000,0.0000,0.0000,0
2026-04-17,14:48:26,16275,1,-7.9840,-3.3059,0.1129,3.3206,10.5310,0,1.0000,-998,1,4.8723,4.7830,-2.8169,-21.7308,169.7452,0.000,0.000,0.844,0.0000,0.0000,0.0000,0.0000,0.0000,0.0000,0
2026-04-17,14:48:26,16311,1,-7.9840,-3.5580,0.1190,3.4988,10.5580,0,1.0000,-998,1,4.1009,-15.5873,-3.4134,-18.6753,169.7732,0.032,0.000,0.841,0.0000,0.0000,0.0000,0.0000,0.0000,0.0000,0
2026-04-17,14:48:26,16347,1,-7.9840,-3.6843,0.1017,2.9907,10.5862,0,1.0000,-998,1,4.5731,9.0092,-3.8856,-16.7974,169.6723,0.024,0.000,0.838,0.0000,0.0000,0.0000,0.0000,0.0000,0.0000,0
2026-04-17,14:48:26,16382,1,-7.9840,-3.6319,0.0944,2.7777,10.6141,0,1.0000,-998,1,4.4297,-0.3064,-3.6947,0.1624,169.6685,0.000,0.000,0.834,0.0000,0.0000,0.0000,0.0000,0.0000,0.0000,0
2026-04-17,14:48:26,16418,1,-7.9840,-3.2915,0.1009,2.9684,10.6406,0,1.0000,-998,1,4.8902,13.3354,-2.6853,19.7708,169.6306,0.000,0.000,0.831,0.0000,0.0000,0.0000,0.0000,0.0000,0.0000,0
2026-04-17,14:48:26,16453,1,-7.9840,-3.6363,0.0995,2.9275,10.6665,0,1.0000,-998,1,4.1700,-21.4070,-2.1890,20.4716,169.7212,0.000,0.000,0.828,0.0000,0.0000,0.0000,0.0000,0.0000,0.0000,0
2026-04-17,14:48:26,16488,1,-7.9840,-3.5633,0.1050,3.0873,10.6930,0,1.0000,-998,1,4.8064,17.1922,-1.8302,11.9948,169.6798,0.000,0.000,0.825,0.0000,0.0000,0.0000,0.0000,0.0000,0.0000,0
2026-04-17,14:48:26,16524,1,-7.9840,-3.6196,0.1101,3.2382,10.7211,0,1.0000,-998,1,4.1816,-14.5071,-2.1891,-6.3405,169.8400,0.000,0.000,0.822,0.0000,0.0000,0.0000,0.0000,0.0000,0.0000,0
2026-04-17,14:48:26,16560,1,-7.9840,-3.4232,0.1087,3.1970,10.7474,0,1.0000,-998,1,4.6824,3.5361,-3.3270,-28.3844,169.8281,0.000,0.000,0.818,0.0000,0.0000,0.0000,0.0000,0.0000,0.0000,0
2026-04-17,14:48:26,16595,1,-7.9840,-3.7548,0.1029,3.0268,10.7742,0,1.0000,-998,1,4.1055,-3.6312,-4.0912,-25.0176,169.9029,0.032,0.000,0.815,0.0000,0.0000,0.0000,0.0000,0.0000,0.0000,0
2026-04-17,14:48:26,16631,1,-7.9840,-3.6545,0.0950,2.7929,10.8022,0,1.0000,-998,1,4.6760,6.5909,-4.3623,-14.3640,169.8619,0.000,0.000,0.812,0.0000,0.0000,0.0000,0.0000,0.0000,0.0000,0
2026-04-17,14:48:26,16666,1,-7.9840,-3.4797,0.0952,2.7986,10.8287,0,1.0000,-998,1,4.2517,-4.4719,-3.7287,9.0504,169.8969,0.000,0.000,0.809,0.0000,0.0000,0.0000,0.0000,0.0000,0.0000,0
2026-04-17,14:48:26,16700,1,-7.9840,-3.5566,0.1049,3.0856,10.8458,0,1.0000,-998,1,4.5269,1.4108,-3.5619,8.1556,169.8918,0.000,0.000,0.807,0.0000,0.0000,0.0000,0.0000,0.0000,0.0000,0
2026-04-17,14:48:26,16736,1,-7.9840,-3.6757,0.1066,3.1359,10.8814,0,1.0000,-998,1,3.7932,-19.9578,-3.4047,7.8651,169.8566,0.032,0.000,0.804,0.0000,0.0000,0.0000,0.0000,0.0000,0.0000,0
2026-04-17,14:48:26,16771,1,-7.9840,-3.8003,0.1125,3.3080,10.9087,0,1.0000,-998,1,4.3884,13.1870,-3.3611,1.9924,169.8380,0.048,0.000,0.801,0.0000,0.0000,0.0000,0.0000,0.0000,0.0000,0
2026-04-17,14:48:26,16806,1,-7.9840,-3.7134,0.1185,3.4856,10.9368,0,1.0000,-998,1,4.1169,-6.2979,-4.0749,-15.9526,169.9075,0.016,0.000,0.798,0.0000,0.0000,0.0000,0.0000,0.0000,0.0000,0
2026-04-17,14:48:26,16842,1,-7.9840,-3.3122,0.1079,3.1742,10.9630,0,1.0000,-998,1,4.6459,12.0192,-5.8059,-43.0294,169.8722,0.000,0.000,0.794,0.0000,0.0000,0.0000,0.0000,0.0000,0.0000,0
2026-04-17,14:48:26,16877,1,-7.9840,-3.6057,0.1086,3.1945,10.9893,0,1.0000,-998,1,3.8424,-16.3093,-6.4936,-28.9729,169.9272,0.016,0.000,0.791,0.0000,0.0000,0.0000,0.0000,0.0000,0.0000,0
2026-04-17,14:48:26,16912,1,-7.9840,-3.4478,0.0892,2.6236,11.0163,0,1.0000,-998,1,4.6458,22.8957,-6.4776,-9.9500,169.8148,0.008,0.000,0.788,0.0000,0.0000,0.0000,0.0000,0.0000,0.0000,0
2026-04-17,14:48:26,16948,1,-7.9840,-2.8813,0.0926,2.7221,11.0415,0,1.0000,-998,1,4.2346,-7.8344,-5.4929,19.8341,169.9706,0.000,0.000,0.785,0.0000,0.0000,0.0000,0.0000,0.0000,0.0000,0
2026-04-17,14:48:26,16984,1,-7.9840,-3.3293,0.1060,3.1167,11.0652,0,1.0000,-998,1,4.5142,4.3618,-4.1445,34.4855,169.8324,0.000,0.000,0.782,0.0000,0.0000,0.0000,0.0000,0.0000,0.0000,0
2026-04-17,14:48:26,17020,1,-7.9840,-3.4682,0.0978,2.8770,11.0905,0,1.0000,-998,1,4.1201,-7.4356,-2.9192,39.0274,169.8710,0.000,0.000,0.778,0.0000,0.0000,0.0000,0.0000,0.0000,0.0000,0
2026-04-17,14:48:26,17055,1,-7.9840,-3.6819,0.1022,3.0047,11.1186,0,1.0000,-998,1,4.1865,-5.4827,-1.8933,31.8800,169.7886,0.000,0.000,0.775,0.0000,0.0000,0.0000,0.0000,0.0000,0.0000,0
2026-04-17,14:48:27,17090,1,-7.9840,-3.5591,0.0927,2.7275,11.1461,0,1.0000,-998,1,4.1175,4.0405,-2.0997,2.2265,169.8715,0.000,0.000,0.772,0.0000,0.0000,0.0000,0.0000,0.0000,0.0000,0
2026-04-17,14:48:27,17126,1,-7.9840,-3.4370,0.1055,3.1025,11.1729,0,1.0000,-998,1,4.5799,6.6959,-3.4702,-31.3705,169.7743,0.000,0.000,0.769,0.0000,0.0000,0.0000,0.0000,0.0000,0.0000,0
2026-04-17,14:48:27,17162,1,-7.9840,-3.4283,0.0935,2.7502,11.1995,0,1.0000,-998,1,3.7209,-8.9113,-4.7485,-35.8446,169.8554,0.032,0.000,0.766,0.0000,0.0000,0.0000,0.0000,0.0000,0.0000,0
2026-04-17,14:48:27,17198,1,-7.9840,-3.0190,0.0883,2.5975,11.2249,0,1.0000,-998,1,4.8014,22.6690,-4.7436,-12.0156,169.7530,0.000,0.000,0.762,0.0000,0.0000,0.0000,0.0000,0.0000,0.0000,0
2026-04-17,14:48:27,17234,1,-7.9840,-3.3594,0.0999,2.9380,11.2496,0,1.0000,-998,1,3.6630,-22.4152,-4.9721,-7.8506,169.8752,0.016,0.000,0.759,0.0000,0.0000,0.0000,0.0000,0.0000,0.0000,0
2026-04-17,14:48:27,17269,1,-7.9840,-3.4809,0.0953,2.8026,11.2749,0,1.0000,-998,1,4.4235,14.7315,-4.1149,16.2545,169.8196,0.008,0.000,0.756,0.0000,0.0000,0.0000,0.0000,0.0000,0.0000,0
2026-04-17,14:48:27,17304,1,-7.9840,-3.1040,0.0897,2.6391,11.2990,0,1.0000,-998,1,4.0190,-5.5684,-4.3052,2.2737,169.8321,0.000,0.000,0.753,0.0000,0.0000,0.0000,0.0000,0.0000,0.0000,0
2026-04-17,14:48:27,17340,1,-7.9840,-2.9925,0.1065,3.1323,11.3207,0,1.0000,-998,1,4.5151,4.6074,-2.6728,34.0337,169.7132,0.000,0.000,0.750,0.0000,0.0000,0.0000,0.0000,0.0000,0.0000,0
2026-04-17,14:48:27,17375,1,-7.9840,-3.1487,0.1051,3.0908,11.3440,0,1.0000,-998,1,3.9225,-9.6753,-0.7415,51.3569,169.6950,0.000,0.000,0.746,0.0000,0.0000,0.0000,0.0000,0.0000,0.0000,0
2026-04-17,14:48:27,17411,1,-7.9840,-3.5295,0.1201,3.5322,11.3698,0,1.0000,-998,1,4.1115,-2.0971,-0.8093,12.6633,169.5378,0.000,0.000,0.743,0.0000,0.0000,0.0000,0.0000,0.0000,0.0000,0
2026-04-17,14:48:27,17447,1,-7.9840,-3.6627,0.1144,3.3661,11.3971,0,1.0000,-998,1,3.8366,-4.8380,-1.7058,-15.6989,169.7342,0.000,0.000,0.740,0.0000,0.0000,0.0000,0.0000,0.0000,0.0000,0
2026-04-17,14:48:27,17488,1,-7.9840,-3.8378,0.1126,3.3122,11.4301,0,1.0000,-998,1,3.9626,-0.7767,-2.2344,-17.4816,169.7467,0.000,0.000,0.738,0.0000,0.0000,0.0000,0.0000,0.0000,0.0000,0
2026-04-17,14:48:27,17523,1,-7.9840,-3.7403,0.1179,3.4675,11.4587,0,1.0000,-998,1,3.8590,0.2589,-2.5651,-10.2203,169.8260,0.000,0.000,0.734,0.0000,0.0000,0.0000,0.0000,0.0000,0.0000,0
2026-04-17,14:48:27,17559,1,-7.9840,-3.3982,0.0846,2.4889,11.4845,0,1.0000,-998,1,3.9478,-7.6256,-2.6421,-3.6020,169.7877,0.000,0.000,0.731,0.0000,0.0000,0.0000,0.0000,0.0000,0.0000,0
2026-04-17,14:48:27,17594,1,-7.9840,-3.0467,0.1011,2.9724,11.5088,0,1.0000,-998,1,4.2578,20.7491,-1.7770,14.4543,169.8192,0.000,0.000,0.728,0.0000,0.0000,0.0000,0.0000,0.0000,0.0000,0
2026-04-17,14:48:27,17630,1,-7.9840,-3.4092,0.1077,3.1681,11.5345,0,1.0000,-998,1,3.7947,-19.1178,-2.5146,-10.9372,169.7747,0.000,0.000,0.725,0.0000,0.0000,0.0000,0.0000,0.0000,0.0000,0
2026-04-17,14:48:27,17666,1,-7.9840,-3.5425,0.0978,2.8775,11.5618,0,1.0000,-998,1,3.9815,15.0890,-3.2840,-25.1631,169.7565,0.000,0.000,0.722,0.0000,0.0000,0.0000,0.0000,0.0000,0.0000,0
2026-04-17,14:48:27,17701,1,-7.9840,-3.4335,0.0925,2.7196,11.5884,0,1.0000,-998,1,3.9895,-7.5104,-4.9969,-47.6475,169.7222,0.000,0.000,0.718,0.0000,0.0000,0.0000,0.0000,0.0000,0.0000,0
2026-04-17,14:48:27,17737,1,-7.9840,-3.2865,0.0951,2.7975,11.6136,0,1.0000,-998,1,4.2317,13.8392,-6.5865,-45.8371,169.6618,0.000,0.000,0.715,0.0000,0.0000,0.0000,0.0000,0.0000,0.0000,0
2026-04-17,14:48:27,17773,1,-7.9840,-3.2657,0.0891,2.6210,11.6389,0,1.0000,-998,1,4.0056,-8.1837,-7.5713,-34.9377,169.6952,0.000,0.000,0.712,0.0000,0.0000,0.0000,0.0000,0.0000,0.0000,0
2026-04-17,14:48:27,17808,1,-7.9840,-3.1102,0.0883,2.5981,11.6618,0,1.0000,-998,1,4.2758,6.0100,-6.3993,14.9296,169.6732,0.000,0.000,0.709,0.0000,0.0000,0.0000,0.0000,0.0000,0.0000,0
2026-04-17,14:48:27,17844,1,-7.9840,-3.0294,0.0779,2.2901,11.6853,0,1.0000,-998,1,4.0846,6.7796,-5.0355,29.8768,169.8065,0.000,0.000,0.706,0.0000,0.0000,0.0000,0.0000,0.0000,0.0000,0
2026-04-17,14:48:27,17880,1,-7.9840,-2.8408,0.0982,2.8876,11.7087,0,1.0000,-998,1,4.3506,-0.3031,-4.3018,25.3755,169.7803,0.000,0.000,0.702,0.0000,0.0000,0.0000,0.0000,0.0000,0.0000,0
2026-04-17,14:48:27,17915,1,-7.9840,-3.0837,0.0918,2.6989,11.7310,0,1.0000,-998,1,3.7599,-9.1217,-3.8250,19.9018,169.8669,0.016,0.000,0.699,0.0000,0.0000,0.0000,0.0000,0.0000,0.0000,0
2026-04-17,14:48:27,17951,1,-7.9840,-3.0552,0.0664,1.9520,11.7553,0,1.0000,-998,1,3.8406,1.5419,-1.7163,50.0164,169.8073,0.000,0.000,0.696,0.0000,0.0000,0.0000,0.0000,0.0000,0.0000,0
2026-04-17,14:48:27,17986,1,-7.9840,-2.4448,0.1087,3.1956,11.7751,0,1.0000,-998,1,5.0936,25.2410,-0.9200,29.1472,169.7971,0.000,0.000,0.710,0.0000,0.0000,0.0000,0.0000,0.0000,0.0000,0
2026-04-17,14:48:27,18021,1,-7.9840,-2.8928,0.1401,4.1220,11.7953,0,1.0000,-998,1,3.2132,-47.0477,-1.1846,4.4065,169.8280,0.032,0.000,0.707,0.0000,0.0000,0.0000,0.0000,0.0000,0.0000,0
2026-04-17,14:48:27,18057,1,-7.9840,-2.8440,0.1336,3.9302,11.8167,0,1.0000,-998,1,4.4857,30.0220,-1.5197,-6.0228,169.7400,0.048,0.000,0.704,0.0000,0.0000,0.0000,0.0000,0.0000,0.0000,0
2026-04-17,14:48:28,18092,1,-7.9840,-2.9523,0.1179,3.4682,11.8389,0,1.0000,-998,1,3.1653,-34.7785,-2.1794,-15.0792,169.8005,0.064,0.000,0.701,0.0000,0.0000,0.0000,0.0000,0.0000,0.0000,0
2026-04-17,14:48:28,18127,1,-7.9840,-3.2552,0.0974,2.8655,11.8625,0,1.0000,-998,1,4.1689,25.7724,-1.7425,6.1668,169.7190,0.080,0.000,0.698,0.0000,0.0000,0.0000,0.0000,0.0000,0.0000,0
2026-04-17,14:48:28,18163,1,-7.9840,-2.5414,0.0937,2.7553,11.8852,0,1.0000,-998,1,4.4084,13.0044,-1.4355,5.0773,169.7866,0.048,0.000,0.694,0.0000,0.0000,0.0000,0.0000,0.0000,0.0000,0
2026-04-17,14:48:28,18198,1,-7.9840,-2.6915,0.0889,2.6161,11.9044,0,1.0000,-998,1,4.3195,-14.8349,-2.1789,-12.8428,169.6613,0.016,0.000,0.691,0.0000,0.0000,0.0000,0.0000,0.0000,0.0000,0
2026-04-17,14:48:28,18233,1,-7.9840,-2.6725,0.0829,2.4384,11.9245,0,1.0000,-998,1,4.2652,6.2231,-1.2179,20.6143,169.8188,0.000,0.000,0.688,0.0000,0.0000,0.0000,0.0000,0.0000,0.0000,0
2026-04-17,14:48:28,18270,1,-7.9840,-2.8645,0.0776,2.2836,11.9438,0,1.0000,-998,1,4.1916,0.7148,-0.2578,23.4960,169.7033,0.000,0.000,0.686,0.0000,0.0000,0.0000,0.0000,0.0000,0.0000,0
2026-04-17,14:48:28,18311,1,-7.9840,-2.8283,0.0807,2.3748,11.9715,0,1.0000,-998,1,4.6714,24.1787,2.2391,51.7221,169.7384,0.000,0.000,0.682,0.0000,0.0000,0.0000,0.0000,0.0000,0.0000,0
2026-04-17,14:48:28,18347,1,-7.9840,-2.9087,0.0751,2.2092,11.9934,0,1.0000,-998,1,4.1013,-21.8028,3.0668,33.6722,169.5865,0.000,0.000,0.678,0.0000,0.0000,0.0000,0.0000,0.0000,0.0000,0
2026-04-17,14:48:28,18382,1,-7.9840,-2.6085,0.0765,2.2500,12.0142,0,1.0000,-998,1,4.3189,9.3389,2.9662,6.1863,169.7267,0.000,0.000,0.675,0.0000,0.0000,0.0000,0.0000,0.0000,0.0000,0
2026-04-17,14:48:28,18417,1,-7.9840,-2.4284,0.0664,1.9540,12.0332,0,1.0000,-998,1,4.1711,-14.4999,0.6834,-48.2843,169.6940,0.000,0.000,0.672,0.0000,0.0000,0.0000,0.0000,0.0000,0.0000,0
2026-04-17,14:48:28,18453,1,-7.9840,-2.3531,0.0776,2.2825,12.0512,0,1.0000,-998,1,4.4744,14.6951,-1.2270,-50.6366,169.6055,0.000,0.000,0.669,0.0000,0.0000,0.0000,0.0000,0.0000,0.0000,0
2026-04-17,14:48:28,18489,1,-7.9840,-2.6525,0.0908,2.6720,12.0710,0,1.0000,-998,1,3.9033,-22.0309,-2.6221,-49.0481,169.6259,0.000,0.000,0.666,0.0000,0.0000,0.0000,0.0000,0.0000,0.0000,0
2026-04-17,14:48:28,18524,1,-7.9840,-2.5467,0.0614,1.8049,12.0903,0,1.0000,-998,1,3.8489,11.7798,-3.5963,-32.8211,169.6624,0.064,0.000,0.662,0.0000,0.0000,0.0000,0.0000,0.0000,0.0000,0
2026-04-17,14:48:28,18559,1,-7.9840,-1.9798,0.0741,2.1784,12.1074,0,1.0000,-998,1,4.8208,13.1367,-2.3586,14.9324,169.7335,0.032,0.000,0.659,0.0000,0.0000,0.0000,0.0000,0.0000,0.0000,0
2026-04-17,14:48:28,18595,1,-7.9840,-2.4333,0.0863,2.5383,12.1253,0,1.0000,-998,1,3.5005,-22.4938,-0.8877,38.2119,169.7687,0.048,0.000,0.656,0.0000,0.0000,0.0000,0.0000,0.0000,0.0000,0
2026-04-17,14:48:28,18630,1,-7.9840,-2.5860,0.0850,2.5001,12.1445,0,1.0000,-998,1,4.3220,21.6898,-0.2665,19.7277,169.7060,0.064,0.000,0.653,0.0000,0.0000,0.0000,0.0000,0.0000,0.0000,0
2026-04-17,14:48:28,18666,1,-7.9840,-2.5458,0.0942,2.7695,12.1644,0,1.0000,-998,1,3.4737,-16.4877,-0.0432,14.5790,169.8081,0.056,0.000,0.650,0.0000,0.0000,0.0000,0.0000,0.0000,0.0000,0
2026-04-17,14:48:28,18701,1,-7.9840,-2.3408,0.0726,2.1365,12.1827,0,1.0000,-998,1,4.3682,21.3311,0.2539,6.5731,169.6911,0.024,0.000,0.646,0.0000,0.0000,0.0000,0.0000,0.0000,0.0000,0
2026-04-17,14:48:28,18737,1,-7.9840,-2.2324,0.0743,2.1838,12.2008,0,1.0000,-998,1,3.7847,-16.1212,-1.0927,-24.0534,169.8209,0.000,0.000,0.643,0.0000,0.0000,0.0000,0.0000,0.0000,0.0000,0
2026-04-17,14:48:28,18773,1,-7.9840,-2.6371,0.0779,2.2909,12.2196,0,1.0000,-998,1,3.9412,5.0183,-3.0892,-53.5071,169.6942,0.000,0.000,0.640,0.0000,0.0000,0.0000,0.0000,0.0000,0.0000,0
2026-04-17,14:48:28,18809,1,-7.9840,-2.4191,0.0831,2.4450,12.2384,0,1.0000,-998,1,3.9875,-3.5322,-5.2996,-60.7932,169.8365,0.000,0.000,0.637,0.0000,0.0000,0.0000,0.0000,0.0000,0.0000,0
2026-04-17,14:48:28,18845,1,-7.9840,-2.4182,0.0930,2.7345,12.2555,0,1.0000,-998,1,3.7988,-7.1590,-6.3415,-42.1218,169.7001,0.000,0.000,0.634,0.0000,0.0000,0.0000,0.0000,0.0000,0.0000,0
2026-04-17,14:48:28,18881,1,-7.9840,-2.3659,0.0679,1.9961,12.2737,0,1.0000,-998,1,3.6777,-0.3856,-6.6929,-20.0008,169.8386,0.000,0.000,0.630,0.0000,0.0000,0.0000,0.0000,0.0000,0.0000,0
2026-04-17,14:48:28,18916,1,-7.9840,-2.2743,0.0733,2.1573,12.2917,0,1.0000,-998,1,3.8531,9.5109,-6.3429,1.9366,169.7365,0.000,0.000,0.627,0.0000,0.0000,0.0000,0.0000,0.0000,0.0000,0
2026-04-17,14:48:28,18951,1,-7.9840,-2.5670,0.0646,1.9014,12.3103,0,1.0000,-998,1,3.6311,-8.5414,-4.9451,29.6616,169.9111,0.000,0.000,0.624,0.0000,0.0000,0.0000,0.0000,0.0000,0.0000,0
2026-04-17,14:48:28,18987,1,-7.9840,-2.2968,0.0732,2.1531,12.3275,0,1.0000,-998,1,4.0060,7.7131,-4.1687,27.0125,169.7017,0.000,0.000,0.621,0.0000,0.0000,0.0000,0.0000,0.0000,0.0000,0
2026-04-17,14:48:28,19023,1,-7.9840,-2.3958,0.0957,2.8155,12.3447,0,1.0000,-998,1,3.5390,-12.0480,-2.3771,45.3839,169.8135,0.000,0.000,0.618,0.0000,0.0000,0.0000,0.0000,0.0000,0.0000,0
2026-04-17,14:48:28,19056,1,-7.9840,-2.2970,0.0851,2.5043,12.3553,0,1.0000,-998,1,3.4828,-7.5808,-1.8911,38.8227,169.7862,0.000,0.000,0.616,0.0000,0.0000,0.0000,0.0000,0.0000,0.0000,0
2026-04-17,14:48:29,19092,1,-7.9840,-2.5255,0.0843,2.4800,12.3795,0,1.0000,-998,1,2.9929,-17.3680,-0.2374,48.9083,169.9122,0.064,0.000,0.613,0.0000,0.0000,0.0000,0.0000,0.0000,0.0000,0
2026-04-17,14:48:29,19128,1,-7.9840,-2.7173,0.0771,2.2663,12.3994,0,1.0000,-998,1,3.4750,14.6658,0.4071,25.5115,169.7240,0.080,0.000,0.610,0.0000,0.0000,0.0000,0.0000,0.0000,0.0000,0
2026-04-17,14:48:29,19163,1,-7.9840,-2.7675,0.0713,2.0977,12.4198,0,1.0000,-998,1,3.5092,-2.2623,-2.0090,-44.9725,169.6615,0.048,0.000,0.606,0.0000,0.0000,0.0000,0.0000,0.0000,0.0000,0
2026-04-17,14:48:29,19199,1,-7.9840,-2.6087,0.0889,2.6135,12.4395,0,1.0000,-998,1,3.3977,-5.7661,-4.5194,-62.9551,169.5922,0.016,0.000,0.603,0.0000,0.0000,0.0000,0.0000,0.0000,0.0000,0
2026-04-17,14:48:29,19234,1,-7.9840,-2.6490,0.0621,1.8278,12.4591,0,1.0000,-998,1,3.4843,1.9926,-5.4318,-40.4871,169.8363,0.000,0.000,0.600,0.0000,0.0000,0.0000,0.0000,0.0000,0.0000,0
2026-04-17,14:48:29,19270,1,-7.9840,-2.0638,0.0703,2.0664,12.4760,0,1.0000,-998,1,3.7500,10.5100,-6.7596,-42.5266,169.8418,0.000,0.000,0.597,0.0000,0.0000,0.0000,0.0000,0.0000,0.0000,0
2026-04-17,14:48:29,19305,1,-7.9840,-2.4214,0.0709,2.0844,12.4938,0,1.0000,-998,1,3.2237,-15.1636,-7.2317,-24.5017,169.8584,0.000,0.000,0.594,0.0000,0.0000,0.0000,0.0000,0.0000,0.0000,0
2026-04-17,14:48:29,19341,1,-7.9840,-2.3994,0.0648,1.9047,12.5115,0,1.0000,-998,1,3.7921,16.9376,-6.8286,1.4749,169.7492,0.000,0.000,0.590,0.0000,0.0000,0.0000,0.0000,0.0000,0.0000,0
2026-04-17,14:48:29,19377,1,-7.9840,-2.3646,0.0818,2.4052,12.5285,0,1.0000,-998,1,3.3901,-15.0742,-5.6912,28.1873,169.7936,0.000,0.000,0.587,0.0000,0.0000,0.0000,0.0000,0.0000,0.0000,0
2026-04-17,14:48:29,19413,1,-7.9840,-2.1156,0.0771,2.2687,12.5461,0,1.0000,-998,1,3.7176,17.5955,-4.0295,40.5094,169.7984,0.000,0.000,0.584,0.0000,0.0000,0.0000,0.0000,0.0000,0.0000,0
2026-04-17,14:48:29,19449,1,-7.9840,-1.9075,0.0694,2.0425,12.5619,0,1.0000,-998,1,3.5312,-12.4678,-2.9413,34.4387,169.7815,0.000,0.000,0.581,0.0000,0.0000,0.0000,0.0000,0.0000,0.0000,0
2026-04-17,14:48:29,19485,1,-7.9840,-2.1021,0.0595,1.7492,12.5778,0,1.0000,-998,1,3.3909,0.6982,-2.3792,20.7264,169.8505,0.000,0.000,0.578,0.0000,0.0000,0.0000,0.0000,0.0000,0.0000,0
2026-04-17,14:48:29,19520,1,-7.9840,-1.7469,0.0521,1.5336,12.5933,0,1.0000,-998,1,3.6467,8.7039,-1.8264,15.9712,169.7701,0.000,0.000,0.574,0.0000,0.0000,0.0000,0.0000,0.0000,0.0000,0
2026-04-17,14:48:29,19555,1,-7.9840,-1.6273,0.0643,1.8902,12.6067,0,1.0000,-998,1,3.3803,-5.4668,-1.3859,14.4554,169.7613,0.000,0.000,0.571,0.0000,0.0000,0.0000,0.0000,0.0000,0.0000,0
2026-04-17,14:48:29,19590,1,-7.9840,-1.9804,0.0696,2.0467,12.6211,0,1.0000,-998,1,3.3537,-1.3583,-1.3130,5.2217,169.7299,0.000,0.000,0.568,0.0000,0.0000,0.0000,0.0000,0.0000,0.0000,0
2026-04-17,14:48:29,19626,1,-7.9840,-1.6984,0.0645,1.8964,12.6355,0,1.0000,-998,1,3.5058,5.1006,-2.5225,-23.3262,169.8413,0.000,0.000,0.565,0.0000,0.0000,0.0000,0.0000,0.0000,0.0000,0
2026-04-17,14:48:29,19662,1,-7.9840,-1.6460,0.0810,2.3813,12.6484,0,1.0000,-998,1,3.3114,-6.4869,-3.8489,-35.4325,169.8048,0.000,0.000,0.562,0.0000,0.0000,0.0000,0.0000,0.0000,0.0000,0
2026-04-17,14:48:29,19698,1,-7.9840,-1.8008,0.0689,2.0279,12.6610,0,1.0000,-998,1,3.4172,-0.9534,-5.2567,-38.9556,169.7821,0.000,0.000,0.558,0.0000,0.0000,0.0000,0.0000,0.0000,0.0000,0
2026-04-17,14:48:29,19733,1,-7.9840,-1.8772,0.0667,1.9617,12.6745,0,1.0000,-998,1,3.3111,0.7855,-6.5343,-38.9485,169.7786,0.000,0.000,0.555,0.0000,0.0000,0.0000,0.0000,0.0000,0.0000,0
2026-04-17,14:48:29,19768,1,-7.9840,-1.2677,0.0538,1.5812,12.6847,0,1.0000,-998,1,3.7194,6.0160,-7.7213,-38.6164,169.7860,0.000,0.000,0.552,0.0000,0.0000,0.0000,0.0000,0.0000,0.0000,0
2026-04-17,14:48:29,19804,1,-7.9840,-1.6306,0.0555,1.6330,12.6970,0,1.0000,-998,1,3.1350,0.7940,-9.3389,-48.9143,169.7766,0.008,0.000,0.549,0.0000,0.0000,0.0000,0.0000,0.0000,0.0000,0
2026-04-17,14:48:29,19837,1,-7.9840,-1.8663,0.0656,1.9300,12.7054,0,1.0000,-998,1,3.2464,2.5423,-9.7483,-41.1232,169.7635,0.000,0.000,0.547,0.0000,0.0000,0.0000,0.0000,0.0000,0.0000,0
2026-04-17,14:48:29,19872,1,-7.9840,-1.6290,0.0719,2.1146,12.7214,0,1.0000,-998,1,2.9016,-9.0232,-9.3279,-2.3903,169.7456,0.016,0.000,0.544,0.0000,0.0000,0.0000,0.0000,0.0000,0.0000,0
2026-04-17,14:48:29,19908,1,-7.9840,-1.7524,0.0606,1.7818,12.7336,0,1.0000,-998,1,3.3194,9.8720,-8.4426,16.1620,169.7699,0.000,0.000,0.541,0.0000,0.0000,0.0000,0.0000,0.0000,0.0000,0
2026-04-17,14:48:29,19943,1,-7.9840,-1.4337,0.0617,1.8134,12.7449,0,1.0000,-998,1,3.0938,-5.6646,-8.3115,5.5119,169.7816,0.000,0.000,0.538,0.0000,0.0000,0.0000,0.0000,0.0000,0.0000,0
2026-04-17,14:48:29,19978,1,-7.9840,-1.6992,0.0585,1.7214,12.7575,0,1.0000,-998,1,2.9904,1.8270,-8.2746,8.1218,169.7338,0.000,0.000,0.534,0.0000,0.0000,0.0000,0.0000,0.0000,0.0000,0
2026-04-17,14:48:29,20014,1,-7.9840,-1.6208,0.0793,2.3310,12.7709,0,1.0000,-998,1,3.3229,8.1700,-5.8876,53.1213,169.7716,0.000,0.000,0.531,0.0000,0.0000,0.0000,0.0000,0.0000,0.0000,0
2026-04-17,14:48:29,20049,1,-7.9840,-1.7811,0.0663,1.9505,12.7826,0,1.0000,-998,1,2.8922,-19.4412,-4.2404,48.6806,169.7317,0.000,0.000,0.528,0.0000,0.0000,0.0000,0.0000,0.0000,0.0000,0
2026-04-17,14:48:29,20084,1,-7.9840,-1.8854,0.0624,1.8359,12.7960,0,1.0000,-998,1,3.2314,14.8091,-4.2790,16.5871,169.8156,0.000,0.000,0.525,0.0000,0.0000,0.0000,0.0000,0.0000,0.0000,0
2026-04-17,14:48:30,20121,1,-7.9840,-1.3436,0.0601,1.7679,12.8072,0,1.0000,-998,1,3.2804,-10.6702,-3.7043,16.2456,169.7259,0.000,0.000,0.522,0.0000,0.0000,0.0000,0.0000,0.0000,0.0000,0
2026-04-17,14:48:30,20157,1,-7.9840,-1.5749,0.0610,1.7941,12.8196,0,1.0000,-998,1,2.8413,1.1368,-3.4515,9.2649,169.8130,0.032,0.000,0.518,0.0000,0.0000,0.0000,0.0000,0.0000,0.0000,0
2026-04-17,14:48:30,20193,1,-7.9840,-1.5410,0.0688,2.0244,12.8320,0,1.0000,-998,1,3.2855,6.9153,-3.8208,-3.5547,169.7304,0.000,0.000,0.515,0.0000,0.0000,0.0000,0.0000,0.0000,0.0000,0
2026-04-17,14:48:30,20228,1,-7.9840,-1.4906,0.0712,2.0930,12.8436,0,1.0000,-998,1,2.9746,-6.3443,-4.4905,-16.3597,169.7452,0.000,0.000,0.512,0.0000,0.0000,0.0000,0.0000,0.0000,0.0000,0
2026-04-17,14:48:30,20263,1,-7.9840,-1.3850,0.0356,1.0469,12.8534,0,1.0000,-998,1,3.4197,8.0415,-6.2498,-41.8229,169.6675,0.000,0.000,0.509,0.0000,0.0000,0.0000,0.0000,0.0000,0.0000,0
2026-04-17,14:48:30,20299,1,-7.9840,-0.9468,0.0561,1.6499,12.8619,0,1.0000,-998,1,3.4351,4.6829,-7.3383,-35.8155,169.7198,0.000,0.000,0.506,0.0000,0.0000,0.0000,0.0000,0.0000,0.0000,0
2026-04-17,14:48:30,20335,1,-7.9840,-1.2837,0.0473,1.3907,12.8704,0,1.0000,-998,1,3.2507,-8.6638,-7.9191,-23.2165,169.6995,0.000,0.000,0.502,0.0000,0.0000,0.0000,0.0000,0.0000,0.0000,0
2026-04-17,14:48:30,20370,1,-7.9840,-1.0864,0.0338,0.9931,12.8791,0,1.0000,-998,1,3.3371,8.6711,-8.2368,-13.4944,169.7405,0.000,0.000,0.499,0.0000,0.0000,0.0000,0.0000,0.0000,0.0000,0
2026-04-17,14:48:30,20405,1,-7.9840,-0.7045,0.0610,1.7938,12.8861,0,1.0000,-998,1,3.5244,1.0670,-7.8354,4.6735,169.6794,0.000,0.000,0.496,0.0000,0.0000,0.0000,0.0000,0.0000,0.0000,0
2026-04-17,14:48:30,20441,1,-7.9840,-0.8866,0.0647,1.9021,12.8924,0,1.0000,-998,1,2.9186,-11.8060,-6.9200,20.5128,169.7073,0.016,0.000,0.493,0.0000,0.0000,0.0000,0.0000,0.0000,0.0000,0
2026-04-17,14:48:30,20476,1,-7.9840,-1.1113,0.0455,1.3392,12.8991,0,1.0000,-998,1,3.4022,7.0529,-6.0225,26.2555,169.6852,0.000,0.000,0.490,0.0000,0.0000,0.0000,0.0000,0.0000,0.0000,0
2026-04-17,14:48:30,20512,1,-7.9840,-1.0740,0.0477,1.4017,12.9071,0,1.0000,-998,1,2.9073,-12.7495,-5.8129,12.6225,169.7456,0.000,0.000,0.486,0.0000,0.0000,0.0000,0.0000,0.0000,0.0000,0
2026-04-17,14:48:30,20547,1,-7.9840,-0.5879,0.0457,1.3430,12.9137,0,1.0000,-998,1,3.4070,17.4640,-5.2185,17.1682,169.6648,0.000,0.000,0.483,0.0000,0.0000,0.0000,0.0000,0.0000,0.0000,0
2026-04-17,14:48:30,20583,1,-7.9840,-0.7675,0.0433,1.2727,12.9185,0,1.0000,-998,1,3.2410,-16.4655,-4.2684,24.5883,169.7105,0.000,0.000,0.480,0.0000,0.0000,0.0000,0.0000,0.0000,0.0000,0
2026-04-17,14:48:30,20622,1,-7.9840,-0.8466,0.0422,1.2415,12.9252,0,1.0000,-998,1,3.2325,-6.8252,-3.8619,20.0964,169.6738,0.000,0.000,0.478,0.0000,0.0000,0.0000,0.0000,0.0000,0.0000,0
2026-04-17,14:48:30,20657,1,-7.9840,-0.6882,0.0379,1.1149,12.9322,0,1.0000,-998,1,3.0701,-13.0428,-2.9163,25.5409,169.8269,0.000,0.000,0.474,0.0000,0.0000,0.0000,0.0000,0.0000,0.0000,0
2026-04-17,14:48:30,20692,1,-7.9840,-0.7493,0.0270,0.7927,12.9385,0,1.0000,-998,1,2.8327,2.5310,-2.0218,28.1036,169.7114,0.040,0.000,0.471,0.0000,0.0000,0.0000,0.0000,0.0000,0.0000,0
2026-04-17,14:48:30,20728,1,-7.9840,-0.1415,0.0244,0.7185,12.9419,0,1.0000,-998,1,3.4448,11.1833,-1.3575,20.9373,169.7838,0.008,0.000,0.468,0.0000,0.0000,0.0000,0.0000,0.0000,0.0000,0
2026-04-17,14:48:30,20763,1,-7.9840,-0.3933,0.0265,0.7786,12.9441,0,1.0000,-998,1,2.3756,-26.5782,-0.8612,20.5496,169.7555,0.000,0.000,0.465,0.0000,0.0000,0.0000,0.0000,0.0000,0.0000,0
2026-04-17,14:48:30,20799,1,-7.9840,-0.1461,0.0285,0.8389,12.9452,0,1.0000,-998,1,3.1420,19.0292,1.0906,47.4526,169.7020,0.016,0.000,0.462,0.0000,0.0000,0.0000,0.0000,0.0000,0.0000,0
2026-04-17,14:48:30,20834,1,-7.9840,-0.4665,0.0278,0.8164,12.9477,0,1.0000,-998,1,2.2504,-29.1151,2.0935,34.1358,169.8205,0.016,0.000,0.458,0.0000,0.0000,0.0000,0.0000,0.0000,0.0000,0
2026-04-17,14:48:30,20869,1,-7.9840,-0.1903,0.0447,1.3155,12.9505,0,1.0000,-998,1,2.9332,23.5185,3.1493,35.8025,169.5931,0.000,0.000,0.455,0.0000,0.0000,0.0000,0.0000,0.0000,0.0000,0
2026-04-17,14:48:30,20904,1,-7.9840,-0.3303,0.0488,1.4364,12.9521,0,1.0000,-998,1,2.4504,-23.6279,4.3371,36.2410,169.8242,0.000,0.000,0.452,0.0000,0.0000,0.0000,0.0000,0.0000,0.0000,0
2026-04-17,14:48:30,20940,1,-7.9840,-0.3818,0.0182,0.5357,12.9542,0,1.0000,-998,1,2.4929,10.4746,4.1711,5.0745,169.5465,0.016,0.000,0.449,0.0000,0.0000,0.0000,0.0000,0.0000,0.0000,0
2026-04-17,14:48:30,20976,1,-7.9840,-0.1157,0.0105,0.3076,12.9554,0,1.0000,-998,1,2.6696,-4.4791,4.0676,3.1562,169.7525,0.000,0.000,0.446,0.0000,0.0000,0.0000,0.0000,0.0000,0.0000,0
2026-04-17,14:48:30,21011,1,-7.9840,-0.0659,0.0133,0.3901,12.9557,0,1.0000,-998,1,2.2578,-4.8329,5.1360,24.7971,169.5815,0.000,0.000,0.442,0.0000,0.0000,0.0000,0.0000,0.0000,0.0000,0
2026-04-17,14:48:30,21047,1,-7.9840,-0.0261,0.0086,0.2525,12.9559,0,1.0000,-998,1,2.5795,3.9476,6.7043,41.1532,169.7058,0.000,0.000,0.439,0.0000,0.0000,0.0000,0.0000,0.0000,0.0000,0
2026-04-17,14:48:30,21082,1,-7.9840,0.0123,0.0115,0.3385,12.9559,0,1.0000,-998,1,2.2332,-7.6150,8.2500,45.7056,169.6351,0.000,0.000,0.436,0.0000,0.0000,0.0000,0.0000,0.0000,0.0000,0
2026-04-17,14:48:31,21118,1,-7.9840,0.0284,0.0092,0.2720,12.9557,0,1.0000,-998,1,2.4726,7.4875,9.9523,52.4298,169.6529,0.000,0.000,0.433,0.0000,0.0000,0.0000,0.0000,0.0000,0.0000,0
