Date,Time,Timestamp_ms,Kite_ID,Commanded_Vel_rps,Actual_Vel_rps,Torque_Nm,Tension_N,Line_Length_m,Target_Enabled,Target_Length_m,Remote_Joy,Remote_Active,Pitch_deg,Pitch_Vel_dps,Yaw_deg,Yaw_Vel_dps,Roll_deg,Dive_Conf,AWW_Conf,AF_Conf,Kite_Pitch_deg,Kite_Roll_deg,Kite_Yaw_deg,Kite_Gyro_X,Kite_Gyro_Y,Kite_Gyro_Z,Kite_IMU_Battery
2026-04-17,08:27:48,0,1,0.0000,0.0116,-0.0368,1.0813,1.0460,0,1.0000,0,0,3.5264,-63.3985,15.7712,-77.7909,130.2114,0.530,0.000,0.518,0.0000,0.0000,0.0000,0.0000,0.0000,0.0000,0
2026-04-17,08:27:48,1,1,0.0000,0.0286,-0.0406,1.1951,1.0459,0,1.0000,0,0,2.1574,-32.0886,18.0990,-22.4095,118.8052,0.610,0.000,0.514,0.0000,0.0000,0.0000,0.0000,0.0000,0.0000,0
2026-04-17,08:27:48,1,1,0.0000,0.0043,-0.0397,1.1688,1.0458,0,1.0000,0,0,5.6031,51.0901,22.7211,30.0554,121.0158,0.670,0.000,0.522,0.0000,0.0000,0.0000,0.0000,0.0000,0.0000,0
2026-04-17,08:27:48,3,1,0.0000,-0.0039,-0.0400,1.1755,1.0458,0,1.0000,0,0,9.2598,79.5833,28.0498,70.0630,123.0737,0.640,0.000,0.552,0.0000,0.0000,0.0000,0.0000,0.0000,0.0000,0
2026-04-17,08:27:48,4,1,0.0000,0.0268,-0.0435,1.2796,1.0457,0,1.0000,0,0,9.1857,29.3647,31.1697,77.1237,125.4246,0.610,0.000,0.582,0.0000,0.0000,0.0000,0.0000,0.0000,0.0000,0
2026-04-17,08:27:48,4,1,0.0000,-0.0028,-0.0442,1.3014,1.0456,0,1.0000,0,0,7.7757,-10.2477,31.9809,59.2271,128.0509,0.580,0.000,0.612,0.0000,0.0000,0.0000,0.0000,0.0000,0.0000,0
2026-04-17,08:27:48,5,1,0.0000,0.0071,-0.0442,1.3001,1.0456,0,1.0000,0,0,7.6508,-5.2757,31.4826,35.3398,130.7017,0.550,0.000,0.642,0.0000,0.0000,0.0000,0.0000,0.0000,0.0000,0
2026-04-17,08:27:48,6,1,0.0000,0.0149,-0.0459,1.3498,1.0456,0,1.0000,0,0,8.0155,3.8925,30.7060,16.7605,133.6395,0.520,0.000,0.672,0.0000,0.0000,0.0000,0.0000,0.0000,0.0000,0
2026-04-17,08:27:48,6,1,0.0000,0.0103,-0.0472,1.3868,1.0455,0,1.0000,0,0,8.4531,9.9308,29.6421,1.0676,136.9983,0.490,0.000,0.702,0.0000,0.0000,0.0000,0.0000,0.0000,0.0000,0
2026-04-17,08:27:48,7,1,0.0000,0.0064,-0.0472,1.3882,1.0455,0,1.0000,0,0,9.3114,19.5689,28.4835,-10.4060,140.1933,0.460,0.000,0.732,0.0000,0.0000,0.0000,0.0000,0.0000,0.0000,0
,,7,1,0.0000,-0.0034,-0.0465,1.3685,1.0455,0,1.0000,0,0,9.8683,16.4695,27.3027,-17.8349,143.4539,0.430,0.000,0.762,0.0000,0.0000,0.0000,0.0000,0.0000,0.0000,0
2026-04-17,08:27:48,8,1,0.0000,-0.0081,-0.0451,1.3253,1.0455,0,1.0000,0,0,9.5079,-0.0858,26.1254,-22.8591,146.5107,0.400,0.000,0.792,0.0000,0.0000,0.0000,0.0000,0.0000,0.0000,0
2026-04-17,08:27:48,8,1,0.0000,-0.0093,-0.0427,1.2554,1.0456,0,1.0000,0,0,8.7056,-13.6654,25.3726,-22.6323,141.9954,0.370,0.000,0.822,0.0000,0.0000,0.0000,0.0000,0.0000,0.0000,0
2026-04-17,08:27:48,9,1,0.0000,0.0093,-0.0426,1.2531,1.0457,0,1.0000,0,0,8.9500,0.8731,24.8143,-20.7840,130.0046,0.340,0.000,0.852,0.0000,0.0000,0.0000,0.0000,0.0000,0.0000,0
2026-04-17,08:27:48,10,1,0.0000,-0.0061,-0.0409,1.2038,1.0457,0,1.0000,0,0,10.2304,21.5263,24.8278,-13.6375,111.6162,0.310,0.000,0.882,0.0000,0.0000,0.0000,0.0000,0.0000,0.0000,0
2026-04-17,08:27:48,11,1,0.0000,-0.0056,-0.0428,1.2599,1.0457,0,1.0000,0,0,9.9135,0.7729,25.6300,-1.6754,115.3617,0.280,0.000,0.912,0.0000,0.0000,0.0000,0.0000,0.0000,0.0000,0
2026-04-17,08:27:48,11,1,0.0000,-0.0092,-0.0407,1.1971,1.0457,0,1.0000,0,0,8.2431,-29.5578,26.2445,4.6561,118.5888,0.250,0.000,0.942,0.0000,0.0000,0.0000,0.0000,0.0000,0.0000,0
2026-04-17,08:27:48,12,1,0.0000,-0.0306,-0.0387,1.1373,1.0458,0,1.0000,0,0,6.4134,-44.5641,26.4799,5.4059,121.2147,0.310,0.000,0.972,0.0000,0.0000,0.0000,0.0000,0.0000,0.0000,0
2026-04-17,08:27:48,12,1,0.0000,-0.0649,-0.0303,0.8907,1.0462,0,1.0000,0,0,4.3393,-54.2811,26.7776,6.5034,123.7448,0.370,0.000,0.991,0.0000,0.0000,0.0000,0.0000,0.0000,0.0000,0
2026-04-17,08:27:48,13,1,0.0000,-0.0976,-0.0166,0.4890,1.0468,0,1.0000,0,0,2.6209,-53.0939,26.6379,2.8836,125.7812,0.340,0.000,0.988,0.0000,0.0000,0.0000,0.0000,0.0000,0.0000,0
2026-04-17,08:27:48,14,1,0.0000,-0.1102,-0.0036,0.1050,1.0476,0,1.0000,0,0,2.3219,-25.0674,25.9990,-4.1335,127.2090,0.310,0.000,0.985,0.0000,0.0000,0.0000,0.0000,0.0000,0.0000,0
2026-04-17,08:27:48,15,1,0.0000,-0.0465,0.0024,0.0710,1.0481,0,1.0000,0,0,4.1917,23.9484,25.6496,-6.1545,128.8013,0.280,0.000,0.982,0.0000,0.0000,0.0000,0.0000,0.0000,0.0000,0
2026-04-17,08:27:48,44,1,0.0000,-0.1176,0.0193,0.5690,1.0486,0,1.0000,0,0,6.6012,49.8774,25.3106,-7.2649,130.6177,0.250,0.000,0.990,0.0000,0.0000,0.0000,0.0000,0.0000,0.0000,0
2026-04-17,08:27:48,45,1,0.0000,-0.0880,0.0328,0.9658,1.0494,0,1.0000,0,0,8.3435,50.3538,24.9780,-8.2471,132.7003,0.220,0.000,1.000,0.0000,0.0000,0.0000,0.0000,0.0000,0.0000,0
2026-04-17,08:27:48,45,1,0.0000,-0.0035,0.0325,0.9568,1.0497,0,1.0000,0,0,8.8332,28.5039,24.6658,-8.5958,135.0345,0.190,0.000,1.000,0.0000,0.0000,0.0000,0.0000,0.0000,0.0000,0
2026-04-17,08:27:48,46,1,0.0000,-0.0096,0.0322,0.9462,1.0497,0,1.0000,0,0,8.4635,5.3599,24.6134,-6.3234,137.5620,0.160,0.000,1.000,0.0000,0.0000,0.0000,0.0000,0.0000,0.0000,0
2026-04-17,08:27:48,46,1,0.0000,0.0064,0.0311,0.9140,1.0497,0,1.0000,0,0,8.0174,-5.5339,24.2079,-8.4026,140.1338,0.130,0.000,1.000,0.0000,0.0000,0.0000,0.0000,0.0000,0.0000,0
2026-04-17,08:27:48,47,1,0.0000,-0.0048,0.0341,1.0028,1.0497,0,1.0000,0,0,7.8434,-4.7011,23.3021,-14.4601,142.8724,0.100,0.000,1.000,0.0000,0.0000,0.0000,0.0000,0.0000,0.0000,0
2026-04-17,08:27:48,48,1,0.0000,-0.0001,0.0347,1.0208,1.0498,0,1.0000,0,0,8.5072,10.3908,22.7893,-14.4804,145.9132,0.070,0.000,1.000,0.0000,0.0000,0.0000,0.0000,0.0000,0.0000,0
2026-04-17,08:27:48,49,1,0.0000,-0.0033,0.0348,1.0243,1.0498,0,1.0000,0,0,9.7230,25.9159,22.4721,-12.9488,148.6675,0.040,0.000,1.000,0.0000,0.0000,0.0000,0.0000,0.0000,0.0000,0
2026-04-17,08:27:48,50,1,0.0000,0.0058,0.0335,0.9853,1.0498,0,1.0000,0,0,10.8553,30.1004,22.0499,-12.9094,136.8119,0.010,0.000,1.000,0.0000,0.0000,0.0000,0.0000,0.0000,0.0000,0
2026-04-17,08:27:48,51,1,0.0000,-0.0093,0.0348,1.0243,1.0498,0,1.0000,0,0,11.3327,20.7848,21.6619,-12.5618,118.5563,0.000,0.000,1.000,0.0000,0.0000,0.0000,0.0000,0.0000,0.0000,0
2026-04-17,08:27:48,52,1,0.0000,0.0009,0.0347,1.0209,1.0498,0,1.0000,0,0,11.8306,16.8029,21.5749,-9.2138,101.2315,0.000,0.000,1.000,0.0000,0.0000,0.0000,0.0000,0.0000,0.0000,0
2026-04-17,08:27:48,52,1,0.0000,-0.0025,0.0351,1.0315,1.0498,0,1.0000,0,0,12.0574,10.6050,21.8118,-4.0484,105.9190,0.000,0.000,1.000,0.0000,0.0000,0.0000,0.0000,0.0000,0.0000,0
2026-04-17,08:27:48,53,1,0.0000,-0.0005,0.0346,1.0171,1.0498,0,1.0000,0,0,12.1434,6.1196,21.8984,-2.0952,109.9423,0.000,0.000,1.000,0.0000,0.0000,0.0000,0.0000,0.0000,0.0000,0
2026-04-17,08:27:48,53,1,0.0000,0.0016,0.0345,1.0133,1.0498,0,1.0000,0,0,12.4251,7.7207,21.6337,-4.0491,113.4260,0.000,0.000,1.000,0.0000,0.0000,0.0000,0.0000,0.0000,0.0000,0
2026-04-17,08:27:48,54,1,0.0000,-0.0008,0.0336,0.9887,1.0498,0,1.0000,0,0,12.6143,6.2505,21.2605,-6.3660,116.6401,0.000,0.000,1.000,0.0000,0.0000,0.0000,0.0000,0.0000,0.0000,0
2026-04-17,08:27:48,55,1,0.0000,-0.0016,0.0328,0.9637,1.0498,0,1.0000,0,0,12.7393,5.0765,20.8669,-8.2332,119.6569,0.000,0.000,1.000,0.0000,0.0000,0.0000,0.0000,0.0000,0.0000,0
2026-04-17,08:27:48,55,1,0.0000,-0.0075,0.0349,1.0277,1.0498,0,1.0000,0,0,13.0396,7.5765,20.3991,-10.0374,122.4877,0.000,0.000,1.000,0.0000,0.0000,0.0000,0.0000,0.0000,0.0000,0
2026-04-17,08:27:48,56,1,0.0000,0.0032,0.0327,0.9606,1.0498,0,1.0000,0,0,13.6176,12.8659,20.0239,-10.1908,125.3346,0.000,0.000,1.000,0.0000,0.0000,0.0000,0.0000,0.0000,0.0000,0
2026-04-17,08:27:49,57,1,0.0000,-0.0062,0.0352,1.0349,1.0498,0,1.0000,0,0,14.0986,13.4121,19.7560,-9.5142,128.0723,0.000,0.000,1.000,0.0000,0.0000,0.0000,0.0000,0.0000,0.0000,0
2026-04-17,08:27:49,57,1,0.0000,0.0021,0.0332,0.9777,1.0498,0,1.0000,0,0,14.4338,11.0062,19.2243,-11.4362,130.6645,0.000,0.000,1.000,0.0000,0.0000,0.0000,0.0000,0.0000,0.0000,0
2026-04-17,08:27:49,58,1,0.0000,0.0012,0.0346,1.0167,1.0498,0,1.0000,0,0,14.4479,4.5412,18.6677,-13.2812,133.3147,0.000,0.000,1.000,0.0000,0.0000,0.0000,0.0000,0.0000,0.0000,0
2026-04-17,08:27:49,59,1,0.0000,-0.0010,0.0348,1.0239,1.0498,0,1.0000,0,0,14.2614,-1.0257,18.3078,-12.2658,135.9469,0.000,0.000,1.000,0.0000,0.0000,0.0000,0.0000,0.0000,0.0000,0
2026-04-17,08:27:49,59,1,0.0000,0.0029,0.0352,1.0349,1.0498,0,1.0000,0,0,14.2805,0.4865,17.9714,-11.5103,138.4031,0.000,0.000,1.000,0.0000,0.0000,0.0000,0.0000,0.0000,0.0000,0
2026-04-17,08:27:49,92,1,0.0000,0.0003,0.0347,1.0204,1.0498,0,1.0000,0,0,14.5275,4.2754,17.7380,-9.9220,140.7293,0.000,0.000,1.000,0.0000,0.0000,0.0000,0.0000,0.0000,0.0000,0
2026-04-17,08:27:49,94,1,0.0000,-0.0050,0.0355,1.0455,1.0499,0,1.0000,0,0,14.6681,3.9866,17.6716,-7.3680,142.9165,0.000,0.000,1.000,0.0000,0.0000,0.0000,0.0000,0.0000,0.0000,0
2026-04-17,08:27:49,95,1,0.0000,-0.0063,0.0374,1.0991,1.0499,0,1.0000,0,0,14.6288,0.3873,17.7232,-3.8890,145.5925,0.000,0.000,1.000,0.0000,0.0000,0.0000,0.0000,0.0000,0.0000,0
2026-04-17,08:27:49,95,1,0.0000,-0.0027,0.0357,1.0495,1.0498,0,1.0000,0,0,14.5673,-0.7644,17.7278,-2.6425,147.4055,0.000,0.000,1.000,0.0000,0.0000,0.0000,0.0000,0.0000,0.0000,0
2026-04-17,08:27:49,96,1,0.0000,-0.0043,0.0370,1.0877,1.0499,0,1.0000,0,0,14.5016,-1.5573,17.5904,-3.1128,149.1177,0.000,0.000,1.000,0.0000,0.0000,0.0000,0.0000,0.0000,0.0000,0
2026-04-17,08:27:49,97,1,0.0000,-0.0042,0.0354,1.0422,1.0498,0,1.0000,0,0,14.3859,-2.5990,17.6069,-1.8891,150.8015,0.000,0.000,1.000,0.0000,0.0000,0.0000,0.0000,0.0000,0.0000,0
2026-04-17,08:27:49,97,1,0.0000,-0.0058,0.0365,1.0746,1.0498,0,1.0000,0,0,14.3586,-1.4811,17.5734,-1.7321,152.2054,0.000,0.000,1.000,0.0000,0.0000,0.0000,0.0000,0.0000,0.0000,0
2026-04-17,08:27:49,98,1,0.0000,0.0069,0.0353,1.0382,1.0498,0,1.0000,0,0,14.1781,-3.9128,17.3674,-3.1137,153.4550,0.000,0.000,1.000,0.0000,0.0000,0.0000,0.0000,0.0000,0.0000,0
2026-04-17,08:27:49,99,1,0.0000,-0.0106,0.0368,1.0812,1.0499,0,1.0000,0,0,13.9453,-5.2581,17.3100,-2.5710,154.6246,0.000,0.000,1.000,0.0000,0.0000,0.0000,0.0000,0.0000,0.0000,0
2026-04-17,08:27:49,99,1,0.0000,0.0023,0.0351,1.0316,1.0498,0,1.0000,0,0,13.9454,-2.0452,17.3820,-1.0436,155.6049,0.000,0.000,1.000,0.0000,0.0000,0.0000,0.0000,0.0000,0.0000,0
2026-04-17,08:27:49,100,1,0.0000,-0.0040,0.0364,1.0700,1.0498,0,1.0000,0,0,13.9340,-1.2061,17.3454,-1.0960,156.4320,0.000,0.000,0.999,0.0000,0.0000,0.0000,0.0000,0.0000,0.0000,0
2026-04-17,08:27:49,101,1,0.0000,0.0063,0.0353,1.0382,1.0498,0,1.0000,0,0,13.7815,-3.3356,17.3322,-0.8756,157.2213,0.000,0.000,0.996,0.0000,0.0000,0.0000,0.0000,0.0000,0.0000,0
2026-04-17,08:27:49,101,1,-0.0320,-0.0021,0.0348,1.0243,1.0498,0,1.0000,-4,1,13.6453,-3.4492,17.2170,-1.6219,157.9417,0.000,0.000,0.993,0.0000,0.0000,0.0000,0.0000,0.0000,0.0000,0
2026-04-17,08:27:49,102,1,-0.0320,0.0049,0.0299,0.8788,1.0498,0,1.0000,-4,1,13.6018,-2.2133,17.1289,-1.8565,158.6994,0.000,0.000,0.990,0.0000,0.0000,0.0000,0.0000,0.0000,0.0000,0
2026-04-17,08:27:49,103,1,-0.0320,0.0072,0.0290,0.8544,1.0499,0,1.0000,-4,1,13.6008,-0.8291,17.1279,-1.2192,159.5392,0.000,0.000,0.987,0.0000,0.0000,0.0000,0.0000,0.0000,0.0000,0
2026-04-17,08:27:49,103,1,1.3360,0.6164,0.1062,3.1250,1.0487,0,1.0000,167,1,13.7009,0.9208,17.0599,-1.5569,160.4304,0.000,0.000,0.984,0.0000,0.0000,0.0000,0.0000,0.0000,0.0000,0
2026-04-17,08:27:49,104,1,1.3360,1.6160,0.0463,1.3631,1.0388,0,1.0000,167,1,12.7756,-15.2322,16.9458,-2.1051,161.3215,0.020,0.000,1.000,0.0000,0.0000,0.0000,0.0000,0.0000,0.0000,0
2026-04-17,08:27:49,105,1,1.3360,1.2584,0.0603,1.7750,1.0293,0,1.0000,167,1,12.5856,-8.7649,17.0671,-0.2666,162.1921,0.080,0.000,1.000,0.0000,0.0000,0.0000,0.0000,0.0000,0.0000,0
2026-04-17,08:27:49,106,1,2.3520,2.0112,0.0939,2.7607,1.0181,0,1.0000,294,1,13.6851,16.9765,17.2935,2.0507,163.0725,0.080,0.000,1.000,0.0000,0.0000,0.0000,0.0000,0.0000,0.0000,0
2026-04-17,08:27:49,107,1,2.8880,2.9263,0.0564,1.6601,0.3798,0,1.0000,361,1,13.3422,-2.0789,15.8830,-3.3101,161.4743,0.000,0.000,0.912,0.0000,0.0000,0.0000,0.0000,0.0000,0.0000,0
2026-04-17,08:27:49,108,1,2.8880,2.9118,0.0457,1.3433,0.3558,0,1.0000,361,1,13.3602,-0.6625,15.8159,-2.9501,162.3596,0.000,0.000,0.910,0.0000,0.0000,0.0000,0.0000,0.0000,0.0000,0
2026-04-17,08:27:49,109,1,2.8880,2.8798,0.0529,1.5565,0.3359,0,1.0000,361,1,13.3235,-0.5361,15.6398,-3.4187,163.3377,0.000,0.000,0.907,0.0000,0.0000,0.0000,0.0000,0.0000,0.0000,0
2026-04-17,08:27:49,129,1,2.8880,2.8873,0.0539,1.5848,0.3085,0,1.0000,361,1,13.0681,-4.6278,15.2136,-7.7817,164.7488,0.000,0.000,0.904,0.0000,0.0000,0.0000,0.0000,0.0000,0.0000,0
2026-04-17,08:27:49,163,1,2.8880,2.8394,0.0510,1.5000,0.2923,0,1.0000,361,1,13.1204,-1.9425,15.1845,-6.2318,165.2692,0.000,0.000,0.902,0.0000,0.0000,0.0000,0.0000,0.0000,0.0000,0
2026-04-17,08:27:49,196,1,2.8800,2.8592,0.0423,1.2444,0.2661,0,1.0000,360,1,12.9907,-3.8089,15.1463,-3.3801,166.5243,0.000,0.000,0.899,0.0000,0.0000,0.0000,0.0000,0.0000,0.0000,0
2026-04-17,08:27:49,229,1,2.8800,2.8075,0.0579,1.7025,0.2471,0,1.0000,360,1,12.7736,-6.4096,15.3025,1.3975,167.6560,0.000,0.000,0.896,0.0000,0.0000,0.0000,0.0000,0.0000,0.0000,0
2026-04-17,08:27:49,271,1,2.8800,2.8151,0.0474,1.3933,0.2202,0,1.0000,360,1,12.4413,-6.6764,15.7958,8.9051,168.9301,0.080,0.000,0.892,0.0000,0.0000,0.0000,0.0000,0.0000,0.0000,0
2026-04-17,08:27:49,306,1,2.8800,2.9090,0.0401,1.1795,0.1989,0,1.0000,360,1,12.4424,-1.2634,16.3369,12.9292,169.6818,0.110,0.000,0.889,0.0000,0.0000,0.0000,0.0000,0.0000,0.0000,0
2026-04-17,08:27:49,339,1,2.8880,2.9814,0.0344,1.0119,0.1779,0,1.0000,361,1,12.4443,-0.2114,17.0468,18.1306,170.3925,0.080,0.000,0.886,0.0000,0.0000,0.0000,0.0000,0.0000,0.0000,0
2026-04-17,08:27:49,373,1,2.8880,2.8354,0.0496,1.4595,0.1570,0,1.0000,361,1,12.1656,-8.9441,17.5572,16.8500,170.9477,0.050,0.000,0.883,0.0000,0.0000,0.0000,0.0000,0.0000,0.0000,0
2026-04-17,08:27:49,406,1,2.8880,2.8867,0.0440,1.2942,0.1367,0,1.0000,361,1,11.9739,-5.3900,18.0884,17.2266,171.4469,0.080,0.000,0.880,0.0000,0.0000,0.0000,0.0000,0.0000,0.0000,0
2026-04-17,08:27:49,449,1,2.8880,2.8930,0.0427,1.2564,0.1100,0,1.0000,361,1,11.7918,-3.9458,18.5458,12.7549,172.0462,0.160,0.000,0.876,0.0000,0.0000,0.0000,0.0000,0.0000,0.0000,0
2026-04-17,08:27:49,493,1,2.8800,2.9193,0.0387,1.1393,0.0834,0,1.0000,360,1,11.6712,-3.5279,18.3916,1.4649,172.5643,0.120,0.000,0.872,0.0000,0.0000,0.0000,0.0000,0.0000,0.0000,0
2026-04-17,08:27:49,537,1,2.8800,3.0008,0.0279,0.8195,0.0559,0,1.0000,360,1,11.6285,1.1210,17.8646,-7.9579,173.0014,0.080,0.000,0.868,0.0000,0.0000,0.0000,0.0000,0.0000,0.0000,0
2026-04-17,08:27:49,580,1,2.8800,2.9325,0.0459,1.3504,0.0294,0,1.0000,360,1,11.6741,2.3670,17.1190,-15.0316,173.3324,0.040,0.000,0.864,0.0000,0.0000,0.0000,0.0000,0.0000,0.0000,0
2026-04-17,08:27:49,613,1,2.8800,2.8833,0.0462,1.3587,0.0089,0,1.0000,360,1,11.6141,-3.5071,16.4925,-17.7716,173.5407,0.010,0.000,0.861,0.0000,0.0000,0.0000,0.0000,0.0000,0.0000,0
2026-04-17,08:27:49,656,1,2.8800,1.4175,-0.1010,2.9702,-0.0153,0,1.0000,360,1,11.2762,-13.8600,15.6723,-18.7681,173.6996,0.000,0.000,0.857,0.0000,0.0000,0.0000,0.0000,0.0000,0.0000,0
2026-04-17,08:27:49,699,1,2.8720,0.0385,0.0054,0.1592,-0.0131,0,1.0000,359,1,11.1594,14.6439,15.5343,-8.3701,174.0127,0.000,0.000,0.853,0.0000,0.0000,0.0000,0.0000,0.0000,0.0000,0
2026-04-17,08:27:49,743,1,2.8720,-0.0056,0.0074,0.2185,-0.0128,0,1.0000,359,1,11.5950,0.5958,15.6004,-1.1749,174.4107,0.000,0.000,0.849,0.0000,0.0000,0.0000,0.0000,0.0000,0.0000,0
2026-04-17,08:27:49,786,1,2.8720,-0.0078,0.0082,0.2418,-0.0128,0,1.0000,359,1,10.1468,-32.5671,15.9820,6.7607,174.7911,0.000,0.000,0.845,0.0000,0.0000,0.0000,0.0000,0.0000,0.0000,0
2026-04-17,08:27:49,819,1,2.8800,-0.0063,0.0082,0.2418,-0.0128,0,1.0000,360,1,9.2784,-25.5396,16.5032,12.7258,174.9406,0.000,0.000,0.842,0.0000,0.0000,0.0000,0.0000,0.0000,0.0000,0
2026-04-17,08:27:49,862,1,2.8800,0.0054,0.0066,0.1951,-0.0128,0,1.0000,360,1,9.0878,-4.4470,17.2004,15.5963,174.8686,0.000,0.000,0.838,0.0000,0.0000,0.0000,0.0000,0.0000,0.0000,0
2026-04-17,08:27:49,906,1,2.8320,0.0005,0.0072,0.2106,-0.0128,0,1.0000,354,1,9.0958,-0.8493,17.7477,13.4657,174.6271,0.000,0.000,0.834,0.0000,0.0000,0.0000,0.0000,0.0000,0.0000,0
2026-04-17,08:27:49,939,1,2.8320,-0.0073,0.0088,0.2575,-0.0128,0,1.0000,354,1,9.0587,-2.7196,17.9112,9.0404,174.4711,0.000,0.000,0.831,0.0000,0.0000,0.0000,0.0000,0.0000,0.0000,0
2026-04-17,08:27:49,973,1,2.8320,0.0006,0.0070,0.2054,-0.0128,0,1.0000,354,1,8.8751,-6.8431,18.0501,6.4769,174.3934,0.000,0.000,0.828,0.0000,0.0000,0.0000,0.0000,0.0000,0.0000,0
2026-04-17,08:27:49,1006,1,2.2480,0.0072,0.0080,0.2366,-0.0128,0,1.0000,281,1,9.0051,-2.1288,18.0555,5.0653,174.4265,0.000,0.000,0.826,0.0000,0.0000,0.0000,0.0000,0.0000,0.0000,0
2026-04-17,08:27:49,1039,1,2.2480,0.0194,0.0073,0.2161,-0.0129,0,1.0000,281,1,8.8500,-5.1566,18.0493,2.1897,174.5036,0.000,0.000,0.823,0.0000,0.0000,0.0000,0.0000,0.0000,0.0000,0
2026-04-17,08:27:50,1072,1,2.2480,-0.0063,0.0068,0.2004,-0.0129,0,1.0000,281,1,8.9620,1.5690,18.0337,1.0792,174.6045,0.000,0.000,0.820,0.0000,0.0000,0.0000,0.0000,0.0000,0.0000,0
2026-04-17,08:27:50,1116,1,0.0000,-0.0009,0.0072,0.2105,-0.0129,0,1.0000,0,1,9.5039,11.4817,17.8487,-2.4251,174.5845,0.000,0.000,0.816,0.0000,0.0000,0.0000,0.0000,0.0000,0.0000,0
2026-04-17,08:27:50,1159,1,0.0000,0.0184,0.0057,0.1686,-0.0129,0,1.0000,0,1,10.1378,13.1311,17.4556,-6.4949,174.4678,0.000,0.000,0.812,0.0000,0.0000,0.0000,0.0000,0.0000,0.0000,0
2026-04-17,08:27:50,1204,1,0.0000,-0.0251,0.0036,0.1066,-0.0130,0,1.0000,0,1,8.6430,-24.7420,16.7341,-11.4973,174.4309,0.000,0.000,0.808,0.0000,0.0000,0.0000,0.0000,0.0000,0.0000,0
2026-04-17,08:27:50,1237,1,0.0000,-0.0126,0.0040,0.1171,-0.0130,0,1.0000,0,1,7.9048,-23.1938,16.3078,-10.8357,174.4072,0.000,0.000,0.805,0.0000,0.0000,0.0000,0.0000,0.0000,0.0000,0
2026-04-17,08:27:50,1280,1,0.0000,0.0079,0.0009,0.0269,-0.0130,0,1.0000,0,1,7.0190,-21.1942,15.8130,-10.4241,174.4678,0.000,0.000,0.801,0.0000,0.0000,0.0000,0.0000,0.0000,0.0000,0
2026-04-17,08:27:50,1323,1,0.0000,-0.0049,0.0011,0.0315,-0.0130,0,1.0000,0,1,6.2770,-18.1546,15.4403,-8.3491,174.5630,0.000,0.000,0.797,0.0000,0.0000,0.0000,0.0000,0.0000,0.0000,0
2026-04-17,08:27:50,1357,1,0.0000,0.0011,0.0014,0.0405,-0.0130,0,1.0000,0,1,5.8030,-15.0522,15.2081,-7.0751,174.7142,0.000,0.000,0.794,0.0000,0.0000,0.0000,0.0000,0.0000,0.0000,0
2026-04-17,08:27:50,1391,1,0.0000,0.0150,0.0051,0.1504,-0.0131,0,1.0000,0,1,5.3954,-13.1619,14.8908,-7.6135,174.9022,0.000,0.000,0.791,0.0000,0.0000,0.0000,0.0000,0.0000,0.0000,0
2026-04-17,08:27:50,1434,1,0.0000,0.0052,0.0007,0.0208,-0.0130,0,1.0000,0,1,4.9652,-10.2763,14.0842,-15.1925,175.1154,0.000,0.000,0.787,0.0000,0.0000,0.0000,0.0000,0.0000,0.0000,0
2026-04-17,08:27:50,1477,1,0.0000,0.0072,0.0045,0.1337,-0.0130,0,1.0000,0,1,4.6872,-7.4683,13.1145,-19.1581,175.2498,0.000,0.000,0.783,0.0000,0.0000,0.0000,0.0000,0.0000,0.0000,0
2026-04-17,08:27:50,1519,1,0.0000,0.0020,0.0047,0.1381,-0.0130,0,1.0000,0,1,4.4922,-5.2539,12.1717,-21.0537,175.3151,0.000,0.000,0.779,0.0000,0.0000,0.0000,0.0000,0.0000,0.0000,0
2026-04-17,08:27:50,1562,1,0.0000,0.0018,0.0013,0.0373,-0.0131,0,1.0000,0,1,4.3847,-2.5410,11.1870,-21.7949,175.2968,0.000,0.000,0.775,0.0000,0.0000,0.0000,0.0000,0.0000,0.0000,0
2026-04-17,08:27:50,1605,1,0.0000,-0.0024,0.0016,0.0465,-0.0130,0,1.0000,0,1,4.3152,-2.5118,10.2573,-20.9985,175.2826,0.000,0.000,0.771,0.0000,0.0000,0.0000,0.0000,0.0000,0.0000,0
2026-04-17,08:27:50,1647,1,0.0000,0.0009,0.0021,0.0615,-0.0130,0,1.0000,0,1,4.2389,-2.5291,9.2967,-22.0835,175.3269,0.000,0.000,0.767,0.0000,0.0000,0.0000,0.0000,0.0000,0.0000,0
2026-04-17,08:27:50,1690,1,0.0000,0.0048,0.0041,0.1198,-0.0131,0,1.0000,0,1,4.1013,-4.0399,8.5147,-18.8880,175.4099,0.000,0.000,0.763,0.0000,0.0000,0.0000,0.0000,0.0000,0.0000,0
2026-04-17,08:27:50,1723,1,0.0000,0.0020,0.0046,0.1351,-0.0130,0,1.0000,0,0,3.9729,-4.6604,8.0317,-16.3893,175.5368,0.000,0.000,0.760,0.0000,0.0000,0.0000,0.0000,0.0000,0.0000,0
2026-04-17,08:27:50,1767,1,0.0000,0.0005,0.0042,0.1232,-0.0130,0,1.0000,0,0,3.7468,-5.8981,7.2756,-17.4908,175.7059,0.000,0.000,0.756,0.0000,0.0000,0.0000,0.0000,0.0000,0.0000,0
2026-04-17,08:27:50,1810,1,0.0000,0.0008,0.0032,0.0946,-0.0130,0,1.0000,0,0,3.4084,-8.8322,6.0825,-25.1023,175.8738,0.000,0.000,0.752,0.0000,0.0000,0.0000,0.0000,0.0000,0.0000,0
2026-04-17,08:27:50,1853,1,0.0000,-0.0118,0.0047,0.1381,-0.0130,0,1.0000,0,0,3.0556,-8.9629,4.7944,-29.3448,176.1792,0.000,0.000,0.748,0.0000,0.0000,0.0000,0.0000,0.0000,0.0000,0
2026-04-17,08:27:50,1896,1,0.0000,0.0096,0.0013,0.0373,-0.0131,0,1.0000,0,0,3.0234,-5.9814,3.6516,-30.4561,176.3299,0.000,0.000,0.745,0.0000,0.0000,0.0000,0.0000,0.0000,0.0000,0
2026-04-17,08:27:50,1939,1,0.0000,-0.0018,0.0044,0.1293,-0.0130,0,1.0000,0,0,2.8068,-6.0888,1.7569,-40.3305,176.4476,0.000,0.000,0.741,0.0000,0.0000,0.0000,0.0000,0.0000,0.0000,0
2026-04-17,08:27:50,1972,1,0.0000,-0.0004,0.0049,0.1442,-0.0130,0,1.0000,0,0,2.6662,-5.2071,0.0401,-47.2663,176.4169,0.000,0.000,0.738,0.0000,0.0000,0.0000,0.0000,0.0000,0.0000,0
2026-04-17,08:27:50,2015,1,0.0000,-0.0037,0.0051,0.1486,-0.0130,0,1.0000,0,0,2.4303,-7.0263,-2.6166,-57.8563,176.2213,0.000,0.000,0.734,0.0000,0.0000,0.0000,0.0000,0.0000,0.0000,0
2026-04-17,08:27:51,2058,1,0.0000,-0.0054,0.0049,0.1442,-0.0130,0,1.0000,0,0,2.0658,-9.7466,-4.8462,-54.1639,176.0190,0.000,0.000,0.730,0.0000,0.0000,0.0000,0.0000,0.0000,0.0000,0
2026-04-17,08:27:51,2101,1,0.0000,-0.0081,0.0044,0.1306,-0.0130,0,1.0000,0,0,1.7081,-9.5703,-6.9402,-51.6267,175.7913,0.000,0.000,0.726,0.0000,0.0000,0.0000,0.0000,0.0000,0.0000,0
2026-04-17,08:27:51,2144,1,0.0000,-0.0121,0.0052,0.1517,-0.0130,0,1.0000,0,0,1.3483,-9.3439,-8.3604,-39.8734,175.6450,0.000,0.000,0.722,0.0000,0.0000,0.0000,0.0000,0.0000,0.0000,0
2026-04-17,08:27:51,2177,1,0.0000,0.0035,0.0041,0.1201,-0.0130,0,1.0000,0,0,1.1122,-7.8215,-9.4244,-36.3189,175.6208,0.000,0.000,0.719,0.0000,0.0000,0.0000,0.0000,0.0000,0.0000,0
2026-04-17,08:27:51,2220,1,0.0000,-0.0085,0.0046,0.1367,-0.0130,0,1.0000,0,0,0.8877,-5.4627,-10.7346,-33.1759,175.6568,0.000,0.000,0.715,0.0000,0.0000,0.0000,0.0000,0.0000,0.0000,0
2026-04-17,08:27:51,2263,1,0.0000,0.0006,-0.0004,0.0105,-0.0130,0,1.0000,0,0,0.7376,-4.0714,-12.3366,-37.2306,175.7061,0.000,0.000,0.711,0.0000,0.0000,0.0000,0.0000,0.0000,0.0000,0
2026-04-17,08:27:51,2306,1,0.0000,0.0062,0.0035,0.1021,-0.0130,0,1.0000,0,0,0.6396,-2.2862,-14.0725,-41.0287,175.7489,0.000,0.000,0.707,0.0000,0.0000,0.0000,0.0000,0.0000,0.0000,0
2026-04-17,08:27:51,2349,1,0.0000,-0.0047,0.0050,0.1456,-0.0130,0,1.0000,0,0,0.6468,0.5552,-16.1308,-46.9464,175.7760,0.000,0.000,0.703,0.0000,0.0000,0.0000,0.0000,0.0000,0.0000,0
2026-04-17,08:27:51,2382,1,0.0000,-0.0070,0.0011,0.0314,-0.0130,0,1.0000,0,0,0.7004,1.2967,-17.5628,-45.8382,175.7438,0.000,0.000,0.700,0.0000,0.0000,0.0000,0.0000,0.0000,0.0000,0
2026-04-17,08:27:51,2425,1,0.0000,-0.0002,0.0049,0.1442,-0.0130,0,1.0000,0,0,0.7757,1.2383,-19.5478,-47.5118,175.6764,0.000,0.000,0.696,0.0000,0.0000,0.0000,0.0000,0.0000,0.0000,0
2026-04-17,08:27:51,2468,1,0.0000,0.0045,0.0042,0.1232,-0.0130,0,1.0000,0,0,0.7391,-1.0758,-21.3537,-44.9448,175.6750,0.000,0.000,0.692,0.0000,0.0000,0.0000,0.0000,0.0000,0.0000,0
2026-04-17,08:27:51,2501,1,0.0000,0.0011,0.0053,0.1561,-0.0130,0,1.0000,0,0,0.6546,-2.9637,-22.5966,-43.1818,175.7360,0.000,0.000,0.689,0.0000,0.0000,0.0000,0.0000,0.0000,0.0000,0
2026-04-17,08:27:51,2544,1,0.0000,0.0064,0.0003,0.0088,-0.0131,0,1.0000,0,0,0.5190,-3.7195,-24.4232,-44.3647,175.8901,0.000,0.000,0.685,0.0000,0.0000,0.0000,0.0000,0.0000,0.0000,0
2026-04-17,08:27:51,2587,1,0.0000,0.0084,0.0037,0.1096,-0.0130,0,1.0000,0,0,0.3290,-5.3294,-25.8373,-37.9878,176.1543,0.000,0.000,0.681,0.0000,0.0000,0.0000,0.0000,0.0000,0.0000,0
2026-04-17,08:27:51,2630,1,0.0000,0.0221,0.0016,0.0460,-0.0131,0,1.0000,0,0,0.1782,-4.1601,-27.2060,-36.2431,176.4026,0.000,0.000,0.677,0.0000,0.0000,0.0000,0.0000,0.0000,0.0000,0
2026-04-17,08:27:51,2673,1,0.0000,-0.0103,0.0038,0.1126,-0.0130,0,1.0000,0,0,0.0741,-2.9859,-29.1399,-44.6996,176.5981,0.000,0.000,0.673,0.0000,0.0000,0.0000,0.0000,0.0000,0.0000,0
2026-04-17,08:27:51,2716,1,0.0000,0.0084,0.0002,0.0044,-0.0131,0,1.0000,0,0,0.0740,0.0214,-31.8574,-59.9794,176.7600,0.000,0.000,0.669,0.0000,0.0000,0.0000,0.0000,0.0000,0.0000,0
2026-04-17,08:27:51,2749,1,0.0000,-0.0037,0.0041,0.1201,-0.0130,0,1.0000,0,0,0.1369,1.5210,-34.1238,-65.8388,176.7968,0.000,0.000,0.666,0.0000,0.0000,0.0000,0.0000,0.0000,0.0000,0
2026-04-17,08:27:51,2792,1,0.0000,0.0739,0.0054,0.1588,-0.0129,0,1.0000,0,0,0.3456,2.3941,-36.9501,-74.9203,176.7178,0.000,0.000,0.663,0.0000,0.0000,0.0000,0.0000,0.0000,0.0000,0
2026-04-17,08:27:51,2835,1,0.0000,0.0398,0.0051,0.1504,-0.0129,0,1.0000,0,0,0.3238,-1.7291,-41.4334,-95.1790,176.2964,0.000,0.000,0.659,0.0000,0.0000,0.0000,0.0000,0.0000,0.0000,0
2026-04-17,08:27:51,2878,1,0.0000,-0.0009,0.0033,0.0978,-0.0130,0,1.0000,0,0,0.0602,-7.3818,-46.8651,-119.7593,175.4866,0.000,0.000,0.655,0.0000,0.0000,0.0000,0.0000,0.0000,0.0000,0
2026-04-17,08:27:51,2921,1,0.0000,-0.0175,0.0037,0.1083,-0.0131,0,1.0000,0,0,-0.2232,-7.5879,-52.1624,-126.5530,174.8295,0.000,0.000,0.651,0.0000,0.0000,0.0000,0.0000,0.0000,0.0000,0
2026-04-17,08:27:51,2964,1,0.0000,0.0344,-0.0002,0.0072,-0.0132,0,1.0000,0,0,-0.9793,-17.8401,-56.6687,-117.3672,162.0219,0.000,0.000,0.647,0.0000,0.0000,0.0000,0.0000,0.0000,0.0000,0
2026-04-17,08:27:51,2997,1,0.0000,-0.0033,0.0050,0.1480,-0.0131,0,1.0000,0,0,-1.6978,-21.9126,-60.0008,-111.5930,163.7927,0.000,0.000,0.644,0.0000,0.0000,0.0000,0.0000,0.0000,0.0000,0
2026-04-17,08:27:51,3040,1,0.0000,-0.0007,0.0006,0.0189,-0.0131,0,1.0000,0,0,-1.7097,4.3767,-65.2539,-121.5111,164.8265,0.000,0.000,0.640,0.0000,0.0000,0.0000,0.0000,0.0000,0.0000,0
2026-04-17,08:27:52,3083,1,0.0000,-0.0047,0.0005,0.0137,-0.0131,0,1.0000,0,0,-1.0808,14.5076,-68.9260,-99.4355,165.1460,0.000,0.000,0.636,0.0000,0.0000,0.0000,0.0000,0.0000,0.0000,0
2026-04-17,08:27:52,3126,1,0.0000,0.0028,0.0034,0.0991,-0.0131,0,1.0000,0,0,-0.5635,14.1278,-70.5793,-61.2059,165.9637,0.000,0.000,0.632,0.0000,0.0000,0.0000,0.0000,0.0000,0.0000,0
2026-04-17,08:27:52,3169,1,0.0000,-0.0035,0.0044,0.1290,-0.0131,0,1.0000,0,0,0.0414,15.5839,-71.6887,-41.0133,167.2590,0.000,0.000,0.628,0.0000,0.0000,0.0000,0.0000,0.0000,0.0000,0
2026-04-17,08:27:52,3211,1,0.0000,-0.0063,0.0043,0.1276,-0.0130,0,1.0000,0,0,0.6291,13.7563,-73.5699,-47.4797,168.7879,0.000,0.000,0.624,0.0000,0.0000,0.0000,0.0000,0.0000,0.0000,0
2026-04-17,08:27:52,3254,1,0.0000,0.0066,0.0049,0.1441,-0.0130,0,1.0000,0,0,0.9928,7.3335,-75.2918,-45.1638,170.4265,0.000,0.000,0.620,0.0000,0.0000,0.0000,0.0000,0.0000,0.0000,0
2026-04-17,08:27:52,3297,1,0.0000,0.0021,0.0042,0.1229,-0.0130,0,1.0000,0,0,1.1736,2.7181,-76.7388,-37.0306,171.9048,0.000,0.000,0.616,0.0000,0.0000,0.0000,0.0000,0.0000,0.0000,0
2026-04-17,08:27:52,3340,1,0.0000,0.0013,0.0043,0.1276,-0.0130,0,1.0000,0,0,1.1812,-2.1020,-78.7978,-47.5038,173.1193,0.000,0.000,0.612,0.0000,0.0000,0.0000,0.0000,0.0000,0.0000,0
2026-04-17,08:27:52,3383,1,0.0000,0.0075,0.0036,0.1066,-0.0131,0,1.0000,0,0,0.9405,-9.1619,-82.1296,-70.9840,173.9484,0.000,0.000,0.608,0.0000,0.0000,0.0000,0.0000,0.0000,0.0000,0
2026-04-17,08:27:52,3416,1,0.0000,0.0023,0.0050,0.1456,-0.0130,0,1.0000,0,0,0.6045,-11.7808,-85.4434,-89.9051,174.3099,0.000,0.000,0.605,0.0000,0.0000,0.0000,0.0000,0.0000,0.0000,0
2026-04-17,08:27:52,3459,1,0.0000,-0.0039,0.0059,0.1742,-0.0129,0,1.0000,0,0,-0.0003,-16.7048,-91.0081,-121.1873,174.3362,0.000,0.000,0.601,0.0000,0.0000,0.0000,0.0000,0.0000,0.0000,0
2026-04-17,08:27:52,3502,1,0.0000,-0.0004,0.0052,0.1532,-0.0130,0,1.0000,0,0,-0.6457,-16.6276,-96.6232,-131.5483,174.3383,0.000,0.000,0.597,0.0000,0.0000,0.0000,0.0000,0.0000,0.0000,0
2026-04-17,08:27:52,3545,1,0.0000,0.0037,0.0047,0.1381,-0.0130,0,1.0000,0,0,-1.0948,-12.2501,-101.3973,-121.0669,174.4112,0.000,0.000,0.593,0.0000,0.0000,0.0000,0.0000,0.0000,0.0000,0
2026-04-17,08:27:52,3588,1,0.0000,-0.0022,0.0054,0.1591,-0.0130,0,1.0000,0,0,-1.6983,-15.4742,-105.6932,-112.1901,174.4227,0.000,0.000,0.589,0.0000,0.0000,0.0000,0.0000,0.0000,0.0000,0
2026-04-17,08:27:52,3621,1,0.0000,-0.0109,0.0038,0.1125,-0.0130,0,1.0000,0,0,-2.2019,-15.8553,-108.3492,-97.2962,174.5807,0.000,0.040,0.586,0.0000,0.0000,0.0000,0.0000,0.0000,0.0000,0
2026-04-17,08:27:52,3664,1,0.0000,-0.0206,0.0047,0.1389,-0.0130,0,1.0000,0,0,-2.7016,-11.4451,-111.1406,-80.4310,175.1366,0.000,0.120,0.582,0.0000,0.0000,0.0000,0.0000,0.0000,0.0000,0
2026-04-17,08:27:52,3699,1,0.0000,-0.0017,0.0053,0.1555,-0.0129,0,1.0000,0,0,-2.9028,-9.0341,-111.6301,-65.5809,175.3720,0.000,0.160,0.580,0.0000,0.0000,0.0000,0.0000,0.0000,0.0000,0
2026-04-17,08:27:52,3742,1,0.0000,0.0082,0.0059,0.1742,-0.0129,0,1.0000,0,0,-3.1333,-5.5581,-114.0837,-61.3538,175.6048,0.000,0.240,0.576,0.0000,0.0000,0.0000,0.0000,0.0000,0.0000,0
2026-04-17,08:27:52,3785,1,0.0000,-0.0034,0.0066,0.1951,-0.0129,0,1.0000,0,0,-3.2678,-3.3611,-115.3929,-42.1217,175.7769,0.000,0.320,0.572,0.0000,0.0000,0.0000,0.0000,0.0000,0.0000,0
2026-04-17,08:27:52,3828,1,0.0000,0.0044,0.0062,0.1819,-0.0129,0,1.0000,0,0,-3.4943,-4.7258,-116.2369,-28.7656,175.8035,0.000,0.400,0.568,0.0000,0.0000,0.0000,0.0000,0.0000,0.0000,0
2026-04-17,08:27:52,3871,1,0.0000,0.0171,0.0055,0.1631,-0.0129,0,1.0000,0,0,-3.5153,-0.0141,-116.7893,-19.9421,175.7117,0.000,0.450,0.564,0.0000,0.0000,0.0000,0.0000,0.0000,0.0000,0
2026-04-17,08:27:52,3914,1,0.0000,0.0103,0.0062,0.1819,-0.0129,0,1.0000,0,0,-3.2961,6.5356,-117.1871,-12.3307,175.6440,0.000,0.410,0.560,0.0000,0.0000,0.0000,0.0000,0.0000,0.0000,0
2026-04-17,08:27:52,3957,1,0.0000,0.0001,0.0048,0.1399,-0.0130,0,1.0000,0,0,-3.0543,5.2796,-117.3141,-5.8766,175.5527,0.000,0.370,0.556,0.0000,0.0000,0.0000,0.0000,0.0000,0.0000,0
2026-04-17,08:27:52,3999,1,0.0000,0.0173,0.0054,0.1590,-0.0130,0,1.0000,0,0,-2.9838,0.7702,-117.2366,-1.0342,175.6307,0.000,0.330,0.552,0.0000,0.0000,0.0000,0.0000,0.0000,0.0000,0
2026-04-17,08:27:52,4041,1,0.0000,-0.0058,0.0056,0.1647,-0.0130,0,1.0000,0,0,-3.1253,-3.4024,-117.3555,-1.4878,175.7626,0.000,0.290,0.548,0.0000,0.0000,0.0000,0.0000,0.0000,0.0000,0
2026-04-17,08:27:53,4084,1,0.0000,-0.0070,0.0052,0.1523,-0.0130,0,1.0000,0,0,-3.3354,-5.3413,-117.0335,4.6323,175.8008,0.000,0.250,0.544,0.0000,0.0000,0.0000,0.0000,0.0000,0.0000,0
2026-04-17,08:27:53,4127,1,0.0000,-0.0205,0.0047,0.1379,-0.0129,0,1.0000,0,0,-3.4718,-4.0067,-116.9192,3.4366,175.7510,0.000,0.210,0.540,0.0000,0.0000,0.0000,0.0000,0.0000,0.0000,0
2026-04-17,08:27:53,4170,1,0.0000,0.0094,0.0067,0.1972,-0.0129,0,1.0000,0,0,-3.6404,-4.4111,-116.6385,5.8385,175.6780,0.000,0.170,0.536,0.0000,0.0000,0.0000,0.0000,0.0000,0.0000,0
2026-04-17,08:27:53,4203,1,0.0000,-0.0004,0.0058,0.1714,-0.0129,0,1.0000,0,0,-3.8034,-4.8115,-116.4326,5.9173,175.6038,0.000,0.140,0.533,0.0000,0.0000,0.0000,0.0000,0.0000,0.0000,0
2026-04-17,08:27:53,4236,1,0.0000,0.0007,0.0064,0.1874,-0.0129,0,1.0000,0,0,-3.8871,-2.3250,-116.6123,-0.6055,175.5527,0.000,0.110,0.530,0.0000,0.0000,0.0000,0.0000,0.0000,0.0000,0
2026-04-17,08:27:53,4278,1,0.0000,-0.0067,0.0072,0.2132,-0.0128,0,1.0000,0,0,-3.8444,1.5177,-116.7251,-1.2827,175.5531,0.000,0.070,0.526,0.0000,0.0000,0.0000,0.0000,0.0000,0.0000,0
2026-04-17,08:27:53,4321,1,0.0000,-0.0040,0.0083,0.2443,-0.0128,0,1.0000,0,0,-3.7607,2.2443,-116.8172,-2.4210,175.6126,0.000,0.030,0.522,0.0000,0.0000,0.0000,0.0000,0.0000,0.0000,0
2026-04-17,08:27:53,4354,1,0.0000,0.0030,0.0074,0.2186,-0.0128,0,1.0000,0,0,-3.6905,2.8657,-116.9108,-3.0289,175.6791,0.000,0.000,0.519,0.0000,0.0000,0.0000,0.0000,0.0000,0.0000,0
2026-04-17,08:27:53,4387,1,0.0000,0.0128,0.0080,0.2365,-0.0128,0,1.0000,0,0,-3.5570,5.0226,-117.1702,-6.1126,175.7530,0.000,0.000,0.516,0.0000,0.0000,0.0000,0.0000,0.0000,0.0000,0
2026-04-17,08:27:53,4430,1,0.0000,0.0099,0.0057,0.1666,-0.0129,0,1.0000,0,0,-3.1703,9.6624,-117.2941,-3.1835,175.8297,0.000,0.000,0.512,0.0000,0.0000,0.0000,0.0000,0.0000,0.0000,0
2026-04-17,08:27:53,4473,1,0.0000,0.0061,0.0044,0.1307,-0.0131,0,1.0000,0,0,-2.8773,6.5797,-116.9608,4.8534,175.8441,0.000,0.000,0.508,0.0000,0.0000,0.0000,0.0000,0.0000,0.0000,0
2026-04-17,08:27:53,4516,1,0.0000,0.0261,-0.0007,0.0212,-0.0132,0,1.0000,0,0,-2.7740,2.1405,-116.4023,10.8069,175.8225,0.000,0.000,0.504,0.0000,0.0000,0.0000,0.0000,0.0000,0.0000,0
2026-04-17,08:27:53,4559,1,0.0000,-0.0035,-0.0024,0.0705,-0.0134,0,1.0000,0,0,-2.8459,-2.3470,-115.6901,15.6285,175.8399,0.000,0.000,0.500,0.0000,0.0000,0.0000,0.0000,0.0000,0.0000,0
2026-04-17,08:27:53,4602,1,0.0000,-0.0039,-0.0040,0.1176,-0.0134,0,1.0000,0,0,-2.9228,-2.8649,-115.2451,15.0237,175.7710,0.000,0.000,0.497,0.0000,0.0000,0.0000,0.0000,0.0000,0.0000,0
2026-04-17,08:27:53,4635,1,0.0000,-0.0144,-0.0025,0.0747,-0.0134,0,1.0000,0,0,-3.0427,-3.5047,-114.9218,12.1266,175.7446,0.000,0.000,0.494,0.0000,0.0000,0.0000,0.0000,0.0000,0.0000,0
2026-04-17,08:27:53,4678,1,0.0000,-0.0391,0.0044,0.1307,-0.0131,0,1.0000,0,0,-3.1781,-3.4641,-114.9939,2.6681,175.7145,0.000,0.000,0.490,0.0000,0.0000,0.0000,0.0000,0.0000,0.0000,0
2026-04-17,08:27:53,4721,1,0.0000,-0.0086,0.0084,0.2471,-0.0128,0,1.0000,0,0,-3.3338,-3.7737,-115.1233,-1.7141,175.7791,0.000,0.000,0.486,0.0000,0.0000,0.0000,0.0000,0.0000,0.0000,0
2026-04-17,08:27:53,4764,1,0.0000,-0.0085,0.0095,0.2807,-0.0127,0,1.0000,0,0,-3.3888,-0.7971,-115.5321,-7.6558,175.8645,0.000,0.000,0.482,0.0000,0.0000,0.0000,0.0000,0.0000,0.0000,0
2026-04-17,08:27:53,4797,1,0.0000,-0.0082,0.0118,0.3481,-0.0127,0,1.0000,0,0,-3.3363,1.3690,-116.0736,-13.6884,175.8698,0.000,0.000,0.479,0.0000,0.0000,0.0000,0.0000,0.0000,0.0000,0
2026-04-17,08:27:53,4841,1,0.0000,0.0049,0.0100,0.2945,-0.0126,0,1.0000,0,0,-3.2717,1.5527,-117.5453,-28.0976,175.8693,0.000,0.000,0.475,0.0000,0.0000,0.0000,0.0000,0.0000,0.0000,0
2026-04-17,08:27:53,4884,1,0.0000,0.0076,0.0101,0.2967,-0.0127,0,1.0000,0,0,-3.1870,2.1250,-118.7543,-28.5327,175.8479,0.000,0.000,0.471,0.0000,0.0000,0.0000,0.0000,0.0000,0.0000,0
2026-04-17,08:27:53,4927,1,0.0000,0.0140,0.0087,0.2545,-0.0128,0,1.0000,0,0,-3.1125,2.3014,-119.5214,-22.4424,175.8585,0.000,0.000,0.467,0.0000,0.0000,0.0000,0.0000,0.0000,0.0000,0
2026-04-17,08:27:53,4970,1,0.0000,0.0023,0.0084,0.2469,-0.0128,0,1.0000,0,0,-3.0987,0.3440,-120.2410,-20.0170,175.8470,0.000,0.000,0.463,0.0000,0.0000,0.0000,0.0000,0.0000,0.0000,0
2026-04-17,08:27:53,5012,1,0.0000,0.0071,0.0059,0.1742,-0.0129,0,1.0000,0,0,-3.0999,0.1857,-120.7811,-14.8374,175.8742,0.000,0.000,0.459,0.0000,0.0000,0.0000,0.0000,0.0000,0.0000,0
2026-04-17,08:27:53,5045,1,0.0000,0.0024,0.0050,0.1484,-0.0129,0,1.0000,0,0,-3.0560,1.3037,-120.6450,-4.0928,175.8682,0.000,0.000,0.456,0.0000,0.0000,0.0000,0.0000,0.0000,0.0000,0
2026-04-17,08:27:54,5088,1,0.0000,0.0086,0.0057,0.1686,-0.0129,0,1.0000,0,0,-3.0785,-0.9074,-120.2451,4.3108,175.7450,0.000,0.000,0.452,0.0000,0.0000,0.0000,0.0000,0.0000,0.0000,0
2026-04-17,08:27:54,5131,1,0.0000,0.0182,0.0041,0.1216,-0.0130,0,1.0000,0,0,-3.1567,-1.1094,-119.9777,6.0911,175.6517,0.000,0.000,0.448,0.0000,0.0000,0.0000,0.0000,0.0000,0.0000,0
2026-04-17,08:27:54,5173,1,0.0000,0.0059,0.0001,0.0031,-0.0131,0,1.0000,0,0,-3.1120,1.9206,-119.5436,9.8000,175.6759,0.000,0.000,0.444,0.0000,0.0000,0.0000,0.0000,0.0000,0.0000,0
2026-04-17,08:27:54,5216,1,0.0000,-0.0072,0.0047,0.1382,-0.0131,0,1.0000,0,0,-3.0192,1.8005,-118.8606,14.4964,175.6965,0.000,0.000,0.440,0.0000,0.0000,0.0000,0.0000,0.0000,0.0000,0
2026-04-17,08:27:54,5249,1,0.0000,0.0015,0.0042,0.1234,-0.0131,0,1.0000,0,0,-3.0722,-1.7903,-118.2388,17.9755,175.7497,0.000,0.000,0.437,0.0000,0.0000,0.0000,0.0000,0.0000,0.0000,0
2026-04-17,08:27:54,5292,1,0.0000,0.0001,0.0035,0.1035,-0.0131,0,1.0000,0,0,-3.1854,-2.2643,-117.3868,20.3113,175.8069,0.000,0.000,0.433,0.0000,0.0000,0.0000,0.0000,0.0000,0.0000,0
2026-04-17,08:27:54,5326,1,0.0000,-0.0084,0.0005,0.0135,-0.0130,0,1.0000,0,0,-3.2558,-2.2653,-116.8667,18.3427,175.7999,0.000,0.000,0.430,0.0000,0.0000,0.0000,0.0000,0.0000,0.0000,0
2026-04-17,08:27:54,5369,1,0.0000,-0.0072,0.0048,0.1398,-0.0130,0,1.0000,0,0,-3.3199,-1.2063,-116.6709,8.7585,175.7004,0.000,0.000,0.426,0.0000,0.0000,0.0000,0.0000,0.0000,0.0000,0
2026-04-17,08:27:54,5412,1,0.0000,-0.0076,0.0055,0.1609,-0.0130,0,1.0000,0,0,-3.2913,1.2923,-116.6459,3.4314,175.6870,0.000,0.000,0.422,0.0000,0.0000,0.0000,0.0000,0.0000,0.0000,0
2026-04-17,08:27:54,5456,1,0.0000,-0.0045,0.0050,0.1477,-0.0129,0,1.0000,0,0,-3.2077,2.2351,-116.7973,-1.8506,175.7194,0.000,0.000,0.418,0.0000,0.0000,0.0000,0.0000,0.0000,0.0000,0
2026-04-17,08:27:54,5492,1,0.0000,0.0065,0.0059,0.1742,-0.0130,0,1.0000,0,0,-3.1771,1.6284,-116.9730,-2.5701,175.7605,0.000,0.000,0.416,0.0000,0.0000,0.0000,0.0000,0.0000,0.0000,0
2026-04-17,08:27:54,5535,1,0.0000,0.0004,0.0057,0.1666,-0.0129,0,1.0000,0,0,-3.1094,1.2022,-117.7747,-13.8121,175.8686,0.000,0.000,0.412,0.0000,0.0000,0.0000,0.0000,0.0000,0.0000,0
2026-04-17,08:27:54,5578,1,0.0000,-0.0053,0.0064,0.1896,-0.0129,0,1.0000,0,0,-3.1406,-0.6024,-118.3356,-13.0741,175.8437,0.000,0.000,0.408,0.0000,0.0000,0.0000,0.0000,0.0000,0.0000,0
2026-04-17,08:27:54,5621,1,0.0000,0.0037,0.0063,0.1847,-0.0129,0,1.0000,0,0,-3.1582,-0.5956,-118.0027,1.5406,175.8543,0.000,0.000,0.404,0.0000,0.0000,0.0000,0.0000,0.0000,0.0000,0
2026-04-17,08:27:54,5663,1,0.0000,-0.0042,0.0085,0.2497,-0.0128,0,1.0000,0,0,-3.2198,-1.6659,-117.9504,0.9260,175.9659,0.000,0.000,0.400,0.0000,0.0000,0.0000,0.0000,0.0000,0.0000,0
2026-04-17,08:27:54,5706,1,0.0000,0.0049,0.0088,0.2576,-0.0127,0,1.0000,0,0,-3.2710,-1.0982,-118.2279,-4.6273,176.0437,0.000,0.000,0.396,0.0000,0.0000,0.0000,0.0000,0.0000,0.0000,0
2026-04-17,08:27:54,5749,1,0.0000,0.0104,0.0090,0.2657,-0.0127,0,1.0000,0,0,-3.2724,0.7867,-118.6663,-8.8837,176.0270,0.000,0.000,0.392,0.0000,0.0000,0.0000,0.0000,0.0000,0.0000,0
2026-04-17,08:27:54,5782,1,0.0000,-0.0145,0.0103,0.3025,-0.0127,0,1.0000,0,0,-3.1805,3.2403,-119.2964,-15.3713,175.9463,0.000,0.000,0.389,0.0000,0.0000,0.0000,0.0000,0.0000,0.0000,0
2026-04-17,08:27:54,5825,1,0.0000,0.0073,0.0104,0.3069,-0.0126,0,1.0000,0,0,-3.0427,3.8906,-120.0136,-16.5503,175.7756,0.000,0.000,0.385,0.0000,0.0000,0.0000,0.0000,0.0000,0.0000,0
2026-04-17,08:27:54,5868,1,0.0000,0.0041,0.0099,0.2922,-0.0127,0,1.0000,0,0,-2.8531,5.6196,-120.5413,-14.5984,175.7659,0.000,0.000,0.381,0.0000,0.0000,0.0000,0.0000,0.0000,0.0000,0
2026-04-17,08:27:54,5911,1,0.0000,-0.0027,0.0095,0.2783,-0.0127,0,1.0000,0,0,-2.6589,4.3646,-120.9973,-12.5356,175.7784,0.000,0.000,0.377,0.0000,0.0000,0.0000,0.0000,0.0000,0.0000,0
2026-04-17,08:27:54,5954,1,0.0000,-0.0012,0.0090,0.2633,-0.0127,0,1.0000,0,0,-2.5874,1.0688,-121.2366,-8.0265,175.7976,0.000,0.000,0.373,0.0000,0.0000,0.0000,0.0000,0.0000,0.0000,0
2026-04-17,08:27:54,5987,1,0.0000,0.0135,0.0095,0.2783,-0.0128,0,1.0000,0,0,-2.5681,1.0287,-121.5006,-9.1156,175.8093,0.000,0.000,0.370,0.0000,0.0000,0.0000,0.0000,0.0000,0.0000,0
2026-04-17,08:27:54,6020,1,0.0000,0.0161,0.0065,0.1924,-0.0128,0,1.0000,0,0,-2.5272,1.3336,-121.7598,-8.0874,175.7871,0.000,0.000,0.367,0.0000,0.0000,0.0000,0.0000,0.0000,0.0000,0
2026-04-17,08:27:55,6063,1,0.0000,0.0041,0.0072,0.2132,-0.0128,0,1.0000,0,0,-2.4812,0.9354,-121.5595,1.5295,175.7201,0.000,0.000,0.363,0.0000,0.0000,0.0000,0.0000,0.0000,0.0000,0
2026-04-17,08:27:55,6106,1,0.0000,-0.0040,0.0072,0.2132,-0.0128,0,1.0000,0,0,-2.4215,1.2597,-120.9224,10.3155,175.6885,0.000,0.000,0.359,0.0000,0.0000,0.0000,0.0000,0.0000,0.0000,0
2026-04-17,08:27:55,6149,1,0.0000,0.0112,0.0072,0.2106,-0.0129,0,1.0000,0,0,-2.4210,-0.0948,-120.5180,10.2328,175.6905,0.000,0.000,0.355,0.0000,0.0000,0.0000,0.0000,0.0000,0.0000,0
2026-04-17,08:27:55,6191,1,0.0000,0.0064,0.0069,0.2028,-0.0129,0,1.0000,0,0,-2.4876,-2.2961,-120.1487,10.3988,175.6173,0.000,0.000,0.351,0.0000,0.0000,0.0000,0.0000,0.0000,0.0000,0
2026-04-17,08:27:55,6234,1,0.0000,0.0231,0.0061,0.1791,-0.0129,0,1.0000,0,0,-2.5853,-2.1589,-119.9043,6.7410,175.5031,0.000,0.000,0.347,0.0000,0.0000,0.0000,0.0000,0.0000,0.0000,0
2026-04-17,08:27:55,6277,1,0.0000,0.0081,0.0065,0.1923,-0.0129,0,1.0000,0,0,-2.5806,0.5337,-119.7904,3.9834,175.4957,0.000,0.000,0.343,0.0000,0.0000,0.0000,0.0000,0.0000,0.0000,0
2026-04-17,08:27:55,6320,1,0.0000,-0.0012,0.0054,0.1589,-0.0129,0,1.0000,0,0,-2.5155,1.0657,-119.6704,3.0557,175.4919,0.000,0.000,0.339,0.0000,0.0000,0.0000,0.0000,0.0000,0.0000,0
2026-04-17,08:27:55,6353,1,0.0000,-0.0089,0.0059,0.1742,-0.0129,0,1.0000,0,0,-2.5887,-1.8534,-119.9107,-2.7419,175.4915,0.000,0.000,0.336,0.0000,0.0000,0.0000,0.0000,0.0000,0.0000,0
2026-04-17,08:27:55,6387,1,0.0000,-0.0079,0.0079,0.2314,-0.0129,0,1.0000,0,0,-2.5882,-1.0407,-119.9733,-2.5436,175.5253,0.000,0.000,0.334,0.0000,0.0000,0.0000,0.0000,0.0000,0.0000,0
2026-04-17,08:27:55,6430,1,0.0000,0.0024,0.0069,0.2028,-0.0129,0,1.0000,0,0,-2.6256,-1.2678,-120.1053,-2.2698,175.6019,0.000,0.000,0.330,0.0000,0.0000,0.0000,0.0000,0.0000,0.0000,0
2026-04-17,08:27:55,6473,1,0.0000,0.0032,0.0052,0.1533,-0.0129,0,1.0000,0,0,-2.7398,-3.3046,-119.6260,7.6036,175.6177,0.000,0.000,0.326,0.0000,0.0000,0.0000,0.0000,0.0000,0.0000,0
2026-04-17,08:27:55,6516,1,0.0000,-0.0074,0.0057,0.1665,-0.0129,0,1.0000,0,0,-2.8132,-2.0310,-119.2744,7.9763,175.6279,0.000,0.000,0.322,0.0000,0.0000,0.0000,0.0000,0.0000,0.0000,0
2026-04-17,08:27:55,6559,1,0.0000,-0.0010,0.0056,0.1638,-0.0129,0,1.0000,0,0,-2.8657,-1.4034,-118.9213,8.3898,175.6438,0.000,0.000,0.318,0.0000,0.0000,0.0000,0.0000,0.0000,0.0000,0
2026-04-17,08:27:55,6592,1,0.0000,-0.0002,0.0065,0.1924,-0.0129,0,1.0000,0,0,-2.8765,-0.5267,-118.6943,7.5922,175.6766,0.000,0.000,0.315,0.0000,0.0000,0.0000,0.0000,0.0000,0.0000,0
2026-04-17,08:27:55,6635,1,0.0000,0.0017,0.0057,0.1665,-0.0129,0,1.0000,0,0,-2.9005,-0.7473,-118.7672,0.8159,175.6803,0.000,0.000,0.311,0.0000,0.0000,0.0000,0.0000,0.0000,0.0000,0
2026-04-17,08:27:55,6678,1,0.0000,-0.0033,0.0060,0.1769,-0.0129,0,1.0000,0,0,-2.9205,-0.0761,-118.8327,-0.3801,175.7060,0.000,0.000,0.307,0.0000,0.0000,0.0000,0.0000,0.0000,0.0000,0
2026-04-17,08:27:55,6721,1,0.0000,-0.0061,0.0068,0.2001,-0.0129,0,1.0000,0,0,-2.9016,0.5005,-118.6034,4.6372,175.7337,0.000,0.000,0.303,0.0000,0.0000,0.0000,0.0000,0.0000,0.0000,0
2026-04-17,08:27:55,6757,1,0.0000,0.0038,0.0069,0.2028,-0.0129,0,1.0000,0,0,-2.8551,1.3077,-118.1948,9.1834,175.7492,0.000,0.000,0.300,0.0000,0.0000,0.0000,0.0000,0.0000,0.0000,0
2026-04-17,08:27:55,6799,1,0.0000,0.0035,0.0062,0.1819,-0.0129,0,1.0000,0,0,-2.8406,-0.0134,-117.6706,12.0179,175.8161,0.000,0.000,0.296,0.0000,0.0000,0.0000,0.0000,0.0000,0.0000,0
2026-04-17,08:27:55,6843,1,0.0000,-0.0063,0.0061,0.1796,-0.0129,0,1.0000,0,0,-2.8577,-0.2234,-116.9557,15.2284,175.8224,0.000,0.000,0.292,0.0000,0.0000,0.0000,0.0000,0.0000,0.0000,0
2026-04-17,08:27:55,6887,1,0.0000,0.0148,0.0067,0.1983,-0.0129,0,1.0000,0,0,-2.8744,-0.5226,-116.7718,7.8169,175.8364,0.000,0.000,0.288,0.0000,0.0000,0.0000,0.0000,0.0000,0.0000,0
2026-04-17,08:27:55,6930,1,0.0000,-0.0018,0.0064,0.1873,-0.0129,0,1.0000,0,0,-2.8860,-0.2784,-116.9118,0.5560,175.8529,0.000,0.000,0.284,0.0000,0.0000,0.0000,0.0000,0.0000,0.0000,0
2026-04-17,08:27:55,6973,1,0.0000,0.0036,0.0060,0.1769,-0.0129,0,1.0000,0,0,-2.8832,0.2602,-116.7355,3.0529,175.8927,0.000,0.000,0.280,0.0000,0.0000,0.0000,0.0000,0.0000,0.0000,0
2026-04-17,08:27:55,7015,1,0.0000,0.0011,0.0069,0.2028,-0.0129,0,1.0000,0,0,-2.8481,0.7076,-116.8207,-0.0405,175.9313,0.000,0.000,0.276,0.0000,0.0000,0.0000,0.0000,0.0000,0.0000,0
2026-04-17,08:27:56,7058,1,0.0000,-0.0035,0.0065,0.1924,-0.0129,0,1.0000,0,0,-2.8428,-0.3525,-116.6467,2.1500,175.9228,0.000,0.000,0.272,0.0000,0.0000,0.0000,0.0000,0.0000,0.0000,0
2026-04-17,08:27:56,7091,1,0.0000,0.0007,0.0078,0.2288,-0.0129,0,1.0000,0,0,-2.8768,-1.1205,-116.8889,-3.2604,175.9149,0.000,0.000,0.269,0.0000,0.0000,0.0000,0.0000,0.0000,0.0000,0
2026-04-17,08:27:56,7134,1,0.0000,0.0037,0.0078,0.2290,-0.0129,0,1.0000,0,0,-2.9224,-1.0695,-117.3033,-7.9999,175.9247,0.000,0.000,0.265,0.0000,0.0000,0.0000,0.0000,0.0000,0.0000,0
2026-04-17,08:27:56,7177,1,0.0000,-0.0111,0.0060,0.1769,-0.0129,0,1.0000,0,0,-2.9834,-1.0246,-117.6045,-7.8404,175.9335,0.000,0.000,0.261,0.0000,0.0000,0.0000,0.0000,0.0000,0.0000,0
2026-04-17,08:27:56,7220,1,0.0000,0.0042,0.0063,0.1847,-0.0129,0,1.0000,0,0,-2.9758,0.6456,-117.8821,-7.6413,175.9554,0.000,0.000,0.257,0.0000,0.0000,0.0000,0.0000,0.0000,0.0000,0
2026-04-17,08:27:56,7253,1,0.0000,0.0108,0.0060,0.1770,-0.0129,0,1.0000,0,0,-2.9236,1.2952,-118.0697,-6.5433,175.9851,0.000,0.000,0.254,0.0000,0.0000,0.0000,0.0000,0.0000,0.0000,0
2026-04-17,08:27:56,7286,1,0.0000,-0.0119,0.0067,0.1978,-0.0129,0,1.0000,0,0,-2.8819,1.2817,-118.0785,-5.1251,175.9864,0.000,0.000,0.252,0.0000,0.0000,0.0000,0.0000,0.0000,0.0000,0
2026-04-17,08:27:56,7319,1,0.0000,-0.0058,0.0073,0.2159,-0.0129,0,1.0000,0,0,-2.8448,0.7902,-118.1329,-3.0971,175.9849,0.000,0.000,0.249,0.0000,0.0000,0.0000,0.0000,0.0000,0.0000,0
2026-04-17,08:27:56,7361,1,0.0000,-0.0133,0.0062,0.1821,-0.0128,0,1.0000,0,0,-2.8943,-1.2031,-118.3366,-4.7867,175.8753,0.000,0.000,0.245,0.0000,0.0000,0.0000,0.0000,0.0000,0.0000,0
2026-04-17,08:27:56,7404,1,0.0000,0.0013,0.0078,0.2289,-0.0129,0,1.0000,0,0,-2.9166,-0.4284,-118.6253,-5.7326,175.9262,0.000,0.000,0.241,0.0000,0.0000,0.0000,0.0000,0.0000,0.0000,0
2026-04-17,08:27:56,7447,1,0.0000,0.0104,0.0064,0.1897,-0.0129,0,1.0000,0,0,-2.8756,0.9882,-118.7161,-3.7838,176.0608,0.000,0.000,0.237,0.0000,0.0000,0.0000,0.0000,0.0000,0.0000,0
2026-04-17,08:27:56,7480,1,0.0000,-0.0008,0.0067,0.1978,-0.0129,0,1.0000,0,0,-2.8647,0.4921,-118.7683,-2.9125,176.2145,0.000,0.000,0.234,0.0000,0.0000,0.0000,0.0000,0.0000,0.0000,0
2026-04-17,08:27:56,7513,1,0.0000,-0.0169,0.0069,0.2028,-0.0129,0,1.0000,0,0,-2.8495,0.5767,-118.8888,-4.1739,176.3265,0.000,0.000,0.231,0.0000,0.0000,0.0000,0.0000,0.0000,0.0000,0
2026-04-17,08:27:56,7555,1,0.0000,0.0003,0.0069,0.2028,-0.0129,0,1.0000,0,0,-2.7978,1.5362,-119.2972,-7.7735,176.4113,0.000,0.000,0.227,0.0000,0.0000,0.0000,0.0000,0.0000,0.0000,0
2026-04-17,08:27:56,7598,1,0.0000,0.0078,0.0073,0.2161,-0.0129,0,1.0000,0,0,-2.8285,-0.8259,-119.7154,-9.6089,176.3568,0.000,0.000,0.223,0.0000,0.0000,0.0000,0.0000,0.0000,0.0000,0
2026-04-17,08:27:56,7641,1,0.0000,0.0045,0.0078,0.2288,-0.0128,0,1.0000,0,0,-2.8787,-1.3753,-119.9173,-6.5072,176.2825,0.000,0.000,0.219,0.0000,0.0000,0.0000,0.0000,0.0000,0.0000,0
2026-04-17,08:27:56,7684,1,0.0000,-0.0055,0.0074,0.2184,-0.0128,0,1.0000,0,0,-2.9684,-2.4729,-119.9471,-2.9706,176.2906,0.000,0.000,0.215,0.0000,0.0000,0.0000,0.0000,0.0000,0.0000,0
2026-04-17,08:27:56,7717,1,0.0000,-0.0025,0.0065,0.1924,-0.0128,0,1.0000,0,0,-3.0417,-2.1191,-119.8928,-0.0031,176.3460,0.000,0.000,0.212,0.0000,0.0000,0.0000,0.0000,0.0000,0.0000,0
2026-04-17,08:27:56,7760,1,0.0000,-0.0004,0.0072,0.2132,-0.0128,0,1.0000,0,0,-3.0888,-0.6523,-119.7329,2.4461,176.3897,0.000,0.000,0.208,0.0000,0.0000,0.0000,0.0000,0.0000,0.0000,0
2026-04-17,08:27:56,7803,1,0.0000,-0.0053,0.0071,0.2080,-0.0128,0,1.0000,0,0,-3.0493,1.1520,-119.4964,4.8436,176.3968,0.000,0.000,0.204,0.0000,0.0000,0.0000,0.0000,0.0000,0.0000,0
2026-04-17,08:27:56,7846,1,0.0000,-0.0015,0.0073,0.2158,-0.0128,0,1.0000,0,0,-3.0394,0.2592,-119.2975,4.8110,176.3553,0.000,0.000,0.200,0.0000,0.0000,0.0000,0.0000,0.0000,0.0000,0
2026-04-17,08:27:56,7889,1,0.0000,0.0077,0.0069,0.2028,-0.0128,0,1.0000,0,0,-3.0095,0.6508,-119.0908,4.9549,176.3474,0.000,0.000,0.196,0.0000,0.0000,0.0000,0.0000,0.0000,0.0000,0
2026-04-17,08:27:56,7922,1,0.0000,0.0071,0.0075,0.2210,-0.0128,0,1.0000,0,0,-3.0005,0.1463,-118.6380,10.1851,176.3691,0.000,0.000,0.193,0.0000,0.0000,0.0000,0.0000,0.0000,0.0000,0
2026-04-17,08:27:56,7964,1,0.0000,0.0058,0.0071,0.2080,-0.0128,0,1.0000,0,0,-3.0257,-0.9180,-118.5903,2.8842,176.3563,0.000,0.000,0.189,0.0000,0.0000,0.0000,0.0000,0.0000,0.0000,0
2026-04-17,08:27:56,8007,1,0.0000,0.0004,0.0077,0.2262,-0.0128,0,1.0000,0,0,-3.0788,-0.9138,-118.7266,-1.1006,176.3470,0.000,0.000,0.185,0.0000,0.0000,0.0000,0.0000,0.0000,0.0000,0
2026-04-17,08:27:56,8040,1,0.0000,0.0046,0.0076,0.2236,-0.0128,0,1.0000,0,0,-3.0966,-0.3531,-118.8261,-2.5707,176.3956,0.000,0.000,0.182,0.0000,0.0000,0.0000,0.0000,0.0000,0.0000,0
2026-04-17,08:27:57,8083,1,0.0000,-0.0011,0.0071,0.2080,-0.0128,0,1.0000,0,0,-3.1204,-0.3378,-118.9553,-2.8998,176.4649,0.000,0.000,0.178,0.0000,0.0000,0.0000,0.0000,0.0000,0.0000,0
2026-04-17,08:27:57,8116,1,0.0000,0.0034,0.0071,0.2081,-0.0128,0,1.0000,0,0,-3.1347,-0.3397,-118.7034,3.2264,176.5037,0.000,0.000,0.175,0.0000,0.0000,0.0000,0.0000,0.0000,0.0000,0
2026-04-17,08:27:57,8150,1,0.0000,-0.0060,0.0078,0.2288,-0.0128,0,1.0000,0,0,-3.1464,-0.3463,-118.5788,3.3666,176.5521,0.000,0.000,0.173,0.0000,0.0000,0.0000,0.0000,0.0000,0.0000,0
2026-04-17,08:27:57,8182,1,0.0000,0.0044,0.0073,0.2159,-0.0129,0,1.0000,0,0,-3.1944,-1.3392,-118.4891,2.6495,176.6189,0.000,0.000,0.170,0.0000,0.0000,0.0000,0.0000,0.0000,0.0000,0
2026-04-17,08:27:57,8225,1,0.0000,0.0007,0.0066,0.1950,-0.0129,0,1.0000,0,0,-3.2239,-0.5291,-118.3492,4.0957,176.6475,0.000,0.000,0.166,0.0000,0.0000,0.0000,0.0000,0.0000,0.0000,0
2026-04-17,08:27:57,8268,1,0.0000,0.0021,0.0066,0.1950,-0.0129,0,1.0000,0,0,-3.2917,-1.7094,-117.7922,10.7394,176.7158,0.000,0.000,0.162,0.0000,0.0000,0.0000,0.0000,0.0000,0.0000,0
2026-04-17,08:27:57,8311,1,0.0000,0.0080,0.0075,0.2210,-0.0129,0,1.0000,0,0,-3.3594,-1.2586,-117.3254,10.9522,176.7423,0.000,0.000,0.158,0.0000,0.0000,0.0000,0.0000,0.0000,0.0000,0
2026-04-17,08:27:57,8347,1,0.0000,0.0006,0.0073,0.2132,-0.0129,0,1.0000,0,0,-3.3761,-0.7884,-116.8529,12.9580,176.8042,0.000,0.000,0.155,0.0000,0.0000,0.0000,0.0000,0.0000,0.0000,0
2026-04-17,08:27:57,8380,1,0.0000,-0.0050,0.0070,0.2055,-0.0129,0,1.0000,0,0,-3.4021,-0.7379,-116.5597,10.7208,176.8477,0.000,0.000,0.152,0.0000,0.0000,0.0000,0.0000,0.0000,0.0000,0
2026-04-17,08:27:57,8423,1,0.0000,-0.0045,0.0071,0.2082,-0.0129,0,1.0000,0,0,-3.4059,0.3112,-116.5684,4.1060,176.9165,0.000,0.000,0.148,0.0000,0.0000,0.0000,0.0000,0.0000,0.0000,0
2026-04-17,08:27:57,8466,1,0.0000,0.0009,0.0059,0.1738,-0.0129,0,1.0000,0,0,-3.4114,-0.4500,-116.3093,4.8719,176.9917,0.000,0.000,0.144,0.0000,0.0000,0.0000,0.0000,0.0000,0.0000,0
2026-04-17,08:27:57,8509,1,0.0000,-0.0026,0.0068,0.2001,-0.0129,0,1.0000,0,0,-3.3785,1.1543,-116.5816,-2.7548,177.0482,0.000,0.000,0.140,0.0000,0.0000,0.0000,0.0000,0.0000,0.0000,0
2026-04-17,08:27:57,8552,1,0.0000,-0.0077,0.0068,0.2004,-0.0129,0,1.0000,0,0,-3.2967,2.3503,-116.8410,-5.2362,177.0562,0.000,0.000,0.136,0.0000,0.0000,0.0000,0.0000,0.0000,0.0000,0
2026-04-17,08:27:57,8595,1,0.0000,-0.0205,0.0075,0.2210,-0.0129,0,1.0000,0,0,-3.2293,1.4387,-116.9933,-4.7354,177.0652,0.000,0.000,0.132,0.0000,0.0000,0.0000,0.0000,0.0000,0.0000,0
2026-04-17,08:27:57,8628,1,0.0000,-0.0102,0.0063,0.1846,-0.0129,0,1.0000,0,0,-3.2198,0.3700,-117.2016,-5.7426,177.0554,0.000,0.000,0.129,0.0000,0.0000,0.0000,0.0000,0.0000,0.0000,0
2026-04-17,08:27:57,8671,1,0.0000,0.0075,0.0073,0.2159,-0.0129,0,1.0000,0,0,-3.2516,-0.8704,-117.2587,-2.7966,177.0504,0.000,0.000,0.125,0.0000,0.0000,0.0000,0.0000,0.0000,0.0000,0
2026-04-17,08:27:57,8714,1,0.0000,-0.0108,0.0078,0.2288,-0.0129,0,1.0000,0,0,-3.2421,0.4901,-117.3592,-2.5964,177.0471,0.000,0.000,0.121,0.0000,0.0000,0.0000,0.0000,0.0000,0.0000,0
2026-04-17,08:27:57,8757,1,0.0000,-0.0024,0.0074,0.2184,-0.0129,0,1.0000,0,0,-3.2290,0.9409,-117.3591,-0.8580,177.0639,0.000,0.000,0.117,0.0000,0.0000,0.0000,0.0000,0.0000,0.0000,0
2026-04-17,08:27:57,8800,1,0.0000,0.0114,0.0070,0.2055,-0.0129,0,1.0000,0,0,-3.1394,2.4862,-117.0152,6.4959,177.1006,0.000,0.000,0.113,0.0000,0.0000,0.0000,0.0000,0.0000,0.0000,0
2026-04-17,08:27:57,8833,1,0.0000,0.0029,0.0065,0.1924,-0.0129,0,1.0000,0,0,-3.0972,1.4439,-116.5914,10.0449,177.1370,0.000,0.000,0.110,0.0000,0.0000,0.0000,0.0000,0.0000,0.0000,0
2026-04-17,08:27:57,8876,1,0.0000,-0.0126,0.0072,0.2106,-0.0129,0,1.0000,0,0,-3.0445,0.9798,-116.0231,12.6660,177.1475,0.000,0.000,0.106,0.0000,0.0000,0.0000,0.0000,0.0000,0.0000,0
2026-04-17,08:27:57,8919,1,0.0000,0.0074,0.0068,0.2004,-0.0129,0,1.0000,0,0,-3.0346,0.7095,-115.7075,9.0125,177.1602,0.000,0.000,0.102,0.0000,0.0000,0.0000,0.0000,0.0000,0.0000,0
2026-04-17,08:27:57,8962,1,0.0000,-0.0013,0.0066,0.1951,-0.0129,0,1.0000,0,0,-2.9641,2.0719,-115.4737,7.1218,177.1664,0.000,0.000,0.098,0.0000,0.0000,0.0000,0.0000,0.0000,0.0000,0
2026-04-17,08:27:57,9005,1,0.0000,-0.0082,0.0063,0.1844,-0.0129,0,1.0000,0,0,-2.8588,2.6653,-115.6418,-0.8568,177.1420,0.000,0.000,0.094,0.0000,0.0000,0.0000,0.0000,0.0000,0.0000,0
2026-04-17,08:27:57,9039,1,0.0000,0.0026,0.0065,0.1897,-0.0129,0,1.0000,0,0,-2.8379,1.7674,-115.6813,-0.9541,177.1565,0.000,0.000,0.092,0.0000,0.0000,0.0000,0.0000,0.0000,0.0000,0
2026-04-17,08:27:58,9082,1,0.0000,-0.0050,0.0066,0.1950,-0.0129,0,1.0000,0,0,-2.7690,1.4519,-115.8280,-2.8837,177.2021,0.000,0.000,0.088,0.0000,0.0000,0.0000,0.0000,0.0000,0.0000,0
2026-04-17,08:27:58,9125,1,0.0000,0.0064,0.0054,0.1587,-0.0129,0,1.0000,0,0,-2.7579,0.3471,-115.4735,4.9526,177.2334,0.000,0.000,0.084,0.0000,0.0000,0.0000,0.0000,0.0000,0.0000,0
2026-04-17,08:27:58,9168,1,0.0000,-0.0111,0.0066,0.1950,-0.0129,0,1.0000,0,0,-2.7805,-0.4089,-114.9893,9.7466,177.2174,0.000,0.000,0.080,0.0000,0.0000,0.0000,0.0000,0.0000,0.0000,0
2026-04-17,08:27:58,9211,1,0.0000,-0.0039,0.0072,0.2132,-0.0129,0,1.0000,0,0,-2.7755,0.4402,-114.6796,7.4346,177.2043,0.000,0.000,0.076,0.0000,0.0000,0.0000,0.0000,0.0000,0.0000,0
2026-04-17,08:27:58,9244,1,0.0000,-0.0067,0.0072,0.2108,-0.0129,0,1.0000,0,0,-2.7451,0.9383,-114.5189,5.9464,177.2295,0.000,0.000,0.073,0.0000,0.0000,0.0000,0.0000,0.0000,0.0000,0
2026-04-17,08:27:58,9287,1,0.0000,-0.0116,0.0073,0.2159,-0.0129,0,1.0000,0,0,-2.7090,0.8893,-114.5523,1.7016,177.2232,0.000,0.000,0.069,0.0000,0.0000,0.0000,0.0000,0.0000,0.0000,0
2026-04-17,08:27:58,9330,1,0.0000,-0.0046,0.0069,0.2028,-0.0129,0,1.0000,0,0,-2.6755,0.8148,-114.6314,-0.6324,177.2143,0.000,0.000,0.065,0.0000,0.0000,0.0000,0.0000,0.0000,0.0000,0
2026-04-17,08:27:58,9373,1,0.0000,0.0047,0.0070,0.2055,-0.0129,0,1.0000,0,0,-2.6526,0.5238,-114.5834,-0.0033,177.1997,0.000,0.000,0.061,0.0000,0.0000,0.0000,0.0000,0.0000,0.0000,0
2026-04-17,08:27:58,9416,1,0.0000,0.0118,0.0058,0.1715,-0.0129,0,1.0000,0,0,-2.6577,-0.0924,-114.7636,-2.9522,177.1855,0.000,0.000,0.057,0.0000,0.0000,0.0000,0.0000,0.0000,0.0000,0
2026-04-17,08:27:58,9449,1,0.0000,0.0067,0.0070,0.2055,-0.0129,0,1.0000,0,0,-2.6493,0.2617,-114.7389,-0.7613,177.1962,0.000,0.000,0.054,0.0000,0.0000,0.0000,0.0000,0.0000,0.0000,0
2026-04-17,08:27:58,9492,1,0.0000,-0.0088,0.0066,0.1950,-0.0129,0,1.0000,0,0,-2.6227,0.7723,-114.3337,7.0629,177.2112,0.000,0.000,0.050,0.0000,0.0000,0.0000,0.0000,0.0000,0.0000,0
2026-04-17,08:27:58,9535,1,0.0000,0.0055,0.0069,0.2028,-0.0129,0,1.0000,0,0,-2.5984,0.7192,-113.5684,15.2414,177.2095,0.000,0.000,0.046,0.0000,0.0000,0.0000,0.0000,0.0000,0.0000,0
2026-04-17,08:27:58,9578,1,0.0000,-0.0010,0.0075,0.2210,-0.0129,0,1.0000,0,0,-2.5623,1.2827,-113.2155,10.0405,177.2134,0.000,0.000,0.042,0.0000,0.0000,0.0000,0.0000,0.0000,0.0000,0
2026-04-17,08:27:58,9620,1,0.0000,0.0046,0.0069,0.2028,-0.0129,0,1.0000,0,0,-2.5668,0.1726,-112.9717,7.6144,177.2318,0.000,0.000,0.038,0.0000,0.0000,0.0000,0.0000,0.0000,0.0000,0
2026-04-17,08:27:58,9653,1,0.0000,-0.0053,0.0065,0.1898,-0.0129,0,1.0000,0,0,-2.5663,0.2269,-112.8628,5.2621,177.2404,0.000,0.000,0.035,0.0000,0.0000,0.0000,0.0000,0.0000,0.0000,0
2026-04-17,08:27:58,9696,1,0.0000,0.0011,0.0071,0.2079,-0.0129,0,1.0000,0,0,-2.5502,-0.2716,-112.9048,0.5555,177.2557,0.000,0.000,0.031,0.0000,0.0000,0.0000,0.0000,0.0000,0.0000,0
2026-04-17,08:27:58,9738,1,0.0000,-0.0030,0.0065,0.1899,-0.0129,0,1.0000,0,0,-2.5716,-0.6974,-112.8711,0.4604,177.2229,0.000,0.000,0.027,0.0000,0.0000,0.0000,0.0000,0.0000,0.0000,0
2026-04-17,08:27:58,9781,1,0.0000,0.0028,0.0074,0.2184,-0.0129,0,1.0000,0,0,-2.6431,-1.7051,-112.9027,-0.5302,177.1578,0.000,0.000,0.023,0.0000,0.0000,0.0000,0.0000,0.0000,0.0000,0
2026-04-17,08:27:58,9824,1,0.0000,0.0028,0.0061,0.1793,-0.0129,0,1.0000,0,0,-2.6425,0.3510,-112.8078,1.9569,177.1830,0.000,0.000,0.019,0.0000,0.0000,0.0000,0.0000,0.0000,0.0000,0
2026-04-17,08:27:58,9857,1,0.0000,-0.0076,0.0063,0.1846,-0.0129,0,1.0000,0,0,-2.5982,1.2800,-112.6715,2.9934,177.2015,0.000,0.000,0.016,0.0000,0.0000,0.0000,0.0000,0.0000,0.0000,0
2026-04-17,08:27:58,9900,1,0.0000,0.0037,0.0062,0.1820,-0.0129,0,1.0000,0,0,-2.5401,1.5486,-112.4312,4.7751,177.2443,0.000,0.000,0.012,0.0000,0.0000,0.0000,0.0000,0.0000,0.0000,0
2026-04-17,08:27:58,9934,1,0.0000,0.0015,0.0074,0.2183,-0.0129,0,1.0000,0,0,-2.5277,1.0300,-112.4079,3.8511,177.2685,0.000,0.000,0.010,0.0000,0.0000,0.0000,0.0000,0.0000,0.0000,0
2026-04-17,08:27:58,9977,1,0.0000,-0.0090,0.0074,0.2185,-0.0128,0,1.0000,0,0,-2.5275,-0.4131,-112.1848,6.1518,177.3233,0.000,0.000,0.006,0.0000,0.0000,0.0000,0.0000,0.0000,0.0000,0
2026-04-17,08:27:58,10020,1,0.0000,0.0009,0.0062,0.1820,-0.0129,0,1.0000,0,0,-2.5466,-0.6633,-111.6401,10.2418,177.3042,0.000,0.000,0.002,0.0000,0.0000,0.0000,0.0000,0.0000,0.0000,0
2026-04-17,08:27:59,10064,1,0.0000,0.0026,0.0072,0.2106,-0.0129,0,1.0000,0,0,-2.5615,0.0378,-111.6291,3.4421,177.2530,0.000,0.000,0.000,0.0000,0.0000,0.0000,0.0000,0.0000,0.0000,0
2026-04-17,08:27:59,10107,1,0.0000,0.0116,0.0075,0.2212,-0.0129,0,1.0000,0,0,-2.5540,0.4862,-111.9431,-4.5486,177.2352,0.000,0.000,0.000,0.0000,0.0000,0.0000,0.0000,0.0000,0.0000,0
2026-04-17,08:27:59,10150,1,0.0000,0.0071,0.0062,0.1820,-0.0129,0,1.0000,0,0,-2.5262,0.8793,-112.2711,-6.0388,177.2405,0.000,0.000,0.000,0.0000,0.0000,0.0000,0.0000,0.0000,0.0000,0
2026-04-17,08:27:59,10193,1,0.0000,-0.0086,0.0065,0.1924,-0.0129,0,1.0000,0,0,-2.4903,0.8337,-111.9573,3.2517,177.2426,0.000,0.000,0.000,0.0000,0.0000,0.0000,0.0000,0.0000,0.0000,0
2026-04-17,08:27:59,10236,1,0.0000,0.0031,0.0074,0.2186,-0.0129,0,1.0000,0,0,-2.4781,0.1684,-111.8835,1.8146,177.2460,0.000,0.000,0.000,0.0000,0.0000,0.0000,0.0000,0.0000,0.0000,0
2026-04-17,08:27:59,10279,1,0.0000,0.0023,0.0056,0.1638,-0.0129,0,1.0000,0,0,-2.4596,0.5407,-111.8511,0.7170,177.2903,0.000,0.000,0.000,0.0000,0.0000,0.0000,0.0000,0.0000,0.0000,0
2026-04-17,08:27:59,10322,1,0.0000,-0.0052,0.0068,0.2001,-0.0129,0,1.0000,0,0,-2.4406,0.5364,-112.0660,-3.7235,177.3346,0.000,0.000,0.000,0.0000,0.0000,0.0000,0.0000,0.0000,0.0000,0
2026-04-17,08:27:59,10366,1,0.0000,0.0060,0.0054,0.1583,-0.0129,0,1.0000,0,0,-2.4205,0.1825,-112.5003,-8.6848,177.3291,0.000,0.000,0.000,0.0000,0.0000,0.0000,0.0000,0.0000,0.0000,0
2026-04-17,08:27:59,10409,1,0.0000,0.0077,0.0058,0.1694,-0.0129,0,1.0000,0,0,-2.3911,0.6714,-112.8087,-7.5602,177.3283,0.000,0.000,0.000,0.0000,0.0000,0.0000,0.0000,0.0000,0.0000,0
2026-04-17,08:27:59,10452,1,0.0000,0.0075,0.0056,0.1637,-0.0130,0,1.0000,0,0,-2.3810,0.2413,-112.6798,-0.0138,177.2900,0.000,0.000,0.000,0.0000,0.0000,0.0000,0.0000,0.0000,0.0000,0
2026-04-17,08:27:59,10495,1,0.0000,0.0040,0.0054,0.1580,-0.0130,0,1.0000,0,0,-2.4183,-1.1312,-112.6237,0.3858,177.2270,0.000,0.000,0.000,0.0000,0.0000,0.0000,0.0000,0.0000,0.0000,0
2026-04-17,08:27:59,10538,1,0.0000,-0.0023,0.0063,0.1847,-0.0129,0,1.0000,0,0,-2.4985,-1.7868,-112.8259,-3.8305,177.2138,0.000,0.000,0.000,0.0000,0.0000,0.0000,0.0000,0.0000,0.0000,0
2026-04-17,08:27:59,10580,1,0.0000,-0.0062,0.0059,0.1742,-0.0129,0,1.0000,0,0,-2.5431,-1.1627,-113.2162,-8.1275,177.2512,0.000,0.000,0.000,0.0000,0.0000,0.0000,0.0000,0.0000,0.0000,0
2026-04-17,08:27:59,10623,1,0.0000,-0.0210,0.0058,0.1719,-0.0129,0,1.0000,0,0,-2.5312,0.3056,-113.5208,-7.7985,177.3132,0.000,0.000,0.000,0.0000,0.0000,0.0000,0.0000,0.0000,0.0000,0
2026-04-17,08:27:59,10666,1,0.0000,0.0088,0.0058,0.1720,-0.0129,0,1.0000,0,0,-2.5202,0.3050,-113.5478,-2.7658,177.3344,0.000,0.000,0.000,0.0000,0.0000,0.0000,0.0000,0.0000,0.0000,0
2026-04-17,08:27:59,10700,1,0.0000,0.0023,0.0064,0.1874,-0.0129,0,1.0000,0,0,-2.5332,-0.5708,-113.2773,4.0341,177.3036,0.000,0.000,0.000,0.0000,0.0000,0.0000,0.0000,0.0000,0.0000,0
2026-04-17,08:27:59,10743,1,0.0000,-0.0126,0.0071,0.2081,-0.0129,0,1.0000,0,0,-2.5546,-0.8852,-112.3574,16.8134,177.2767,0.000,0.000,0.000,0.0000,0.0000,0.0000,0.0000,0.0000,0.0000,0
2026-04-17,08:27:59,10776,1,0.0000,0.0092,0.0060,0.1769,-0.0129,0,1.0000,0,0,-2.5789,-0.5837,-111.8923,15.2681,177.2838,0.000,0.000,0.000,0.0000,0.0000,0.0000,0.0000,0.0000,0.0000,0
2026-04-17,08:27:59,10818,1,0.0000,0.0061,0.0067,0.1974,-0.0129,0,1.0000,0,0,-2.5666,0.4118,-111.3965,13.8412,177.2839,0.000,0.000,0.000,0.0000,0.0000,0.0000,0.0000,0.0000,0.0000,0
2026-04-17,08:27:59,10860,1,0.0000,0.0064,0.0061,0.1792,-0.0129,0,1.0000,0,0,-2.5626,0.2321,-111.2181,10.7865,177.2996,0.000,0.000,0.000,0.0000,0.0000,0.0000,0.0000,0.0000,0.0000,0
2026-04-17,08:27:59,10903,1,0.0000,-0.0021,0.0067,0.1977,-0.0129,0,1.0000,0,0,-2.5643,0.1488,-111.0806,5.7920,177.3506,0.000,0.000,0.000,0.0000,0.0000,0.0000,0.0000,0.0000,0.0000,0
2026-04-17,08:27:59,10945,1,0.0000,0.0053,0.0062,0.1819,-0.0129,0,1.0000,0,0,-2.5377,0.8698,-111.0198,2.9991,177.3557,0.000,0.000,0.000,0.0000,0.0000,0.0000,0.0000,0.0000,0.0000,0
2026-04-17,08:27:59,10988,1,0.0000,0.0013,0.0073,0.2132,-0.0129,0,1.0000,0,0,-2.6055,-1.8524,-111.0535,-0.2246,177.3291,0.000,0.000,0.000,0.0000,0.0000,0.0000,0.0000,0.0000,0.0000,0
2026-04-17,08:27:59,11031,1,0.0000,0.0111,0.0064,0.1897,-0.0129,0,1.0000,0,0,-2.6130,0.2662,-111.3877,-5.2755,177.3095,0.000,0.000,0.000,0.0000,0.0000,0.0000,0.0000,0.0000,0.0000,0
2026-04-17,08:28:00,11074,1,0.0000,-0.0018,0.0072,0.2106,-0.0129,0,1.0000,0,0,-2.5774,0.6200,-111.3591,-1.2100,177.3542,0.000,0.000,0.000,0.0000,0.0000,0.0000,0.0000,0.0000,0.0000,0
2026-04-17,08:28:00,11107,1,0.0000,0.0017,0.0071,0.2082,-0.0129,0,1.0000,0,0,-2.5728,0.4420,-111.3748,-1.1513,177.3519,0.000,0.000,0.000,0.0000,0.0000,0.0000,0.0000,0.0000,0.0000,0
2026-04-17,08:28:00,11150,1,0.0000,0.0032,0.0080,0.2341,-0.0129,0,1.0000,0,0,-2.5498,0.5746,-111.6903,-6.0090,177.3769,0.000,0.000,0.000,0.0000,0.0000,0.0000,0.0000,0.0000,0.0000,0
2026-04-17,08:28:00,11193,1,0.0000,0.0052,0.0059,0.1742,-0.0129,0,1.0000,0,0,-2.5415,0.1199,-112.2081,-10.9382,177.4065,0.000,0.000,0.000,0.0000,0.0000,0.0000,0.0000,0.0000,0.0000,0
2026-04-17,08:28:00,11236,1,0.0000,-0.0000,0.0055,0.1611,-0.0129,0,1.0000,0,0,-2.5303,0.3291,-112.5909,-9.4165,177.4014,0.000,0.000,0.000,0.0000,0.0000,0.0000,0.0000,0.0000,0.0000,0
2026-04-17,08:28:00,11279,1,0.0000,0.0110,0.0063,0.1851,-0.0129,0,1.0000,0,0,-2.5279,0.1157,-112.6802,-4.0984,177.3774,0.000,0.000,0.000,0.0000,0.0000,0.0000,0.0000,0.0000,0.0000,0
2026-04-17,08:28:00,11312,1,0.0000,-0.0036,0.0073,0.2132,-0.0129,0,1.0000,0,0,-2.5373,-0.2959,-112.4476,2.4282,177.3604,0.000,0.000,0.000,0.0000,0.0000,0.0000,0.0000,0.0000,0.0000,0
2026-04-17,08:28:00,11355,1,0.0000,0.0010,0.0065,0.1924,-0.0129,0,1.0000,0,0,-2.5483,0.0943,-111.8732,10.2785,177.3754,0.000,0.000,0.000,0.0000,0.0000,0.0000,0.0000,0.0000,0.0000,0
2026-04-17,08:28:00,11398,1,0.0000,0.0054,0.0059,0.1742,-0.0129,0,1.0000,0,0,-2.5080,1.1793,-111.6168,7.3771,177.3806,0.000,0.000,0.000,0.0000,0.0000,0.0000,0.0000,0.0000,0.0000,0
2026-04-17,08:28:00,11441,1,0.0000,0.0167,0.0068,0.2006,-0.0129,0,1.0000,0,0,-2.5039,0.0079,-111.2505,9.7768,177.3733,0.000,0.000,0.000,0.0000,0.0000,0.0000,0.0000,0.0000,0.0000,0
2026-04-17,08:28:00,11484,1,0.0000,-0.0132,0.0064,0.1897,-0.0129,0,1.0000,0,0,-2.5078,0.1907,-110.6473,13.4479,177.3939,0.000,0.000,0.000,0.0000,0.0000,0.0000,0.0000,0.0000,0.0000,0
2026-04-17,08:28:00,11517,1,0.0000,-0.0026,0.0069,0.2028,-0.0129,0,1.0000,0,0,-2.4949,0.2950,-110.3497,10.9525,177.3999,0.000,0.000,0.000,0.0000,0.0000,0.0000,0.0000,0.0000,0.0000,0
2026-04-17,08:28:00,11559,1,0.0000,-0.0061,0.0063,0.1847,-0.0129,0,1.0000,0,0,-2.4742,0.6210,-110.2962,4.9430,177.4094,0.000,0.000,0.000,0.0000,0.0000,0.0000,0.0000,0.0000,0.0000,0
2026-04-17,08:28:00,11602,1,0.0000,-0.0129,0.0068,0.2004,-0.0129,0,1.0000,0,0,-2.4712,0.2284,-110.1627,3.9237,177.4466,0.000,0.000,0.000,0.0000,0.0000,0.0000,0.0000,0.0000,0.0000,0
2026-04-17,08:28:00,11645,1,0.0000,0.0018,0.0073,0.2160,-0.0129,0,1.0000,0,0,-2.4986,-0.4790,-110.0454,3.5924,177.3997,0.000,0.000,0.000,0.0000,0.0000,0.0000,0.0000,0.0000,0.0000,0
2026-04-17,08:28:00,11678,1,0.0000,-0.0051,0.0054,0.1584,-0.0129,0,1.0000,0,0,-2.5145,-0.5515,-110.0185,2.0960,177.3413,0.000,0.000,0.000,0.0000,0.0000,0.0000,0.0000,0.0000,0.0000,0
2026-04-17,08:28:00,11711,1,0.0000,-0.0053,0.0055,0.1611,-0.0129,0,1.0000,0,0,-2.5211,0.0173,-110.1580,-1.8779,177.3065,0.000,0.000,0.000,0.0000,0.0000,0.0000,0.0000,0.0000,0.0000,0
2026-04-17,08:28:00,11744,1,0.0000,-0.0067,0.0060,0.1769,-0.0129,0,1.0000,0,0,-2.5319,-0.1340,-110.2164,-1.8601,177.3029,0.000,0.000,0.000,0.0000,0.0000,0.0000,0.0000,0.0000,0.0000,0
2026-04-17,08:28:00,11787,1,0.0000,-0.0013,0.0065,0.1924,-0.0129,0,1.0000,0,0,-2.4623,1.2172,-110.5386,-5.6309,177.3330,0.000,0.000,0.000,0.0000,0.0000,0.0000,0.0000,0.0000,0.0000,0
2026-04-17,08:28:00,11830,1,0.0000,0.0142,0.0063,0.1847,-0.0129,0,1.0000,0,0,-2.4220,1.0686,-110.7257,-5.7338,177.4006,0.000,0.000,0.000,0.0000,0.0000,0.0000,0.0000,0.0000,0.0000,0
2026-04-17,08:28:00,11873,1,0.0000,-0.0038,0.0053,0.1561,-0.0129,0,1.0000,0,0,-2.3205,2.5359,-111.4186,-13.8235,177.4866,0.000,0.000,0.000,0.0000,0.0000,0.0000,0.0000,0.0000,0.0000,0
2026-04-17,08:28:00,11915,1,0.0000,-0.0060,0.0052,0.1533,-0.0130,0,1.0000,0,0,-2.3305,-1.1449,-111.9310,-13.0194,177.5532,0.000,0.000,0.000,0.0000,0.0000,0.0000,0.0000,0.0000,0.0000,0
2026-04-17,08:28:00,11958,1,0.0000,0.0018,0.0054,0.1580,-0.0130,0,1.0000,0,0,-2.5313,-4.4030,-111.9840,-6.0398,177.4340,0.000,0.000,0.000,0.0000,0.0000,0.0000,0.0000,0.0000,0.0000,0
2026-04-17,08:28:00,12001,1,0.0000,0.0109,0.0045,0.1321,-0.0130,0,1.0000,0,0,-2.6456,-2.1110,-111.9370,-0.2649,177.1964,0.000,0.000,0.000,0.0000,0.0000,0.0000,0.0000,0.0000,0.0000,0
2026-04-17,08:28:00,12044,1,0.0000,0.0129,0.0006,0.0179,-0.0131,0,1.0000,0,0,-2.2062,12.0003,-111.7865,2.4992,176.7096,0.000,0.000,0.000,0.0000,0.0000,0.0000,0.0000,0.0000,0.0000,0
2026-04-17,08:28:01,12087,1,0.0000,-0.0152,0.0035,0.1022,-0.0131,0,1.0000,0,0,-1.6229,12.2716,-111.5248,4.6036,176.4112,0.000,0.000,0.000,0.0000,0.0000,0.0000,0.0000,0.0000,0.0000,0
2026-04-17,08:28:01,12120,1,0.0000,-0.0122,-0.0003,0.0093,-0.0131,0,1.0000,0,0,-1.6462,-1.3183,-111.3343,5.5754,176.2886,0.000,0.000,0.000,0.0000,0.0000,0.0000,0.0000,0.0000,0.0000,0
2026-04-17,08:28:01,12163,1,0.0000,-0.0031,0.0011,0.0328,-0.0131,0,1.0000,0,0,-2.1075,-11.0632,-111.3231,0.9351,175.9705,0.000,0.000,0.000,0.0000,0.0000,0.0000,0.0000,0.0000,0.0000,0
2026-04-17,08:28:01,12206,1,0.0000,-0.0049,-0.0000,0.0007,-0.0131,0,1.0000,0,0,-2.6209,-13.0622,-111.4325,-0.9496,175.8485,0.000,0.000,0.000,0.0000,0.0000,0.0000,0.0000,0.0000,0.0000,0
2026-04-17,08:28:01,12249,1,0.0000,0.0037,0.0011,0.0316,-0.0131,0,1.0000,0,0,-3.1676,-13.1434,-111.2111,3.0846,175.9341,0.000,0.000,0.000,0.0000,0.0000,0.0000,0.0000,0.0000,0.0000,0
2026-04-17,08:28:01,12292,1,0.0000,0.0101,0.0035,0.1024,-0.0131,0,1.0000,0,0,-3.4211,-4.9993,-111.1203,2.5396,176.1427,0.000,0.000,0.000,0.0000,0.0000,0.0000,0.0000,0.0000,0.0000,0
2026-04-17,08:28:01,12325,1,0.0000,0.0072,0.0004,0.0106,-0.0131,0,1.0000,0,0,-3.3431,2.3297,-111.1196,1.1683,176.4698,0.000,0.000,0.000,0.0000,0.0000,0.0000,0.0000,0.0000,0.0000,0
2026-04-17,08:28:01,12369,1,0.0000,0.0034,0.0035,0.1024,-0.0131,0,1.0000,0,0,-3.0383,7.6504,-111.1058,1.2003,176.7163,0.000,0.000,0.000,0.0000,0.0000,0.0000,0.0000,0.0000,0.0000,0
2026-04-17,08:28:01,12412,1,0.0000,0.0138,0.0000,0.0011,-0.0132,0,1.0000,0,0,-2.7125,7.8687,-111.6301,-7.4544,176.5343,0.000,0.000,0.000,0.0000,0.0000,0.0000,0.0000,0.0000,0.0000,0
2026-04-17,08:28:01,12455,1,0.0000,0.0243,-0.0008,0.0250,-0.0133,0,1.0000,0,0,-2.3967,7.1161,-111.9733,-7.1631,176.2326,0.000,0.000,0.000,0.0000,0.0000,0.0000,0.0000,0.0000,0.0000,0
2026-04-17,08:28:01,12488,1,0.0000,0.0085,-0.0031,0.0923,-0.0134,0,1.0000,0,0,-2.3068,2.3649,-112.0440,-4.0155,176.0773,0.000,0.000,0.000,0.0000,0.0000,0.0000,0.0000,0.0000,0.0000,0
2026-04-17,08:28:01,12521,1,0.0000,-0.0022,-0.0017,0.0496,-0.0133,0,1.0000,0,0,-2.4603,-3.6385,-111.9044,0.6901,176.0022,0.000,0.000,0.000,0.0000,0.0000,0.0000,0.0000,0.0000,0.0000,0
2026-04-17,08:28:01,12564,1,0.0000,-0.0046,-0.0016,0.0460,-0.0133,0,1.0000,0,0,-2.5571,-2.5656,-111.6297,4.5310,176.0029,0.000,0.000,0.000,0.0000,0.0000,0.0000,0.0000,0.0000,0.0000,0
2026-04-17,08:28:01,12607,1,0.0000,-0.0176,-0.0004,0.0109,-0.0132,0,1.0000,0,0,-2.6401,-1.2247,-111.7543,-1.9280,176.1735,0.000,0.000,0.000,0.0000,0.0000,0.0000,0.0000,0.0000,0.0000,0
2026-04-17,08:28:01,12641,1,0.0000,0.0006,-0.0005,0.0143,-0.0132,0,1.0000,0,0,-2.5287,0.7168,-112.0822,-3.6134,176.0855,0.000,0.000,0.000,0.0000,0.0000,0.0000,0.0000,0.0000,0.0000,0
2026-04-17,08:28:01,12674,1,0.0000,0.0214,-0.0008,0.0250,-0.0133,0,1.0000,0,0,-1.9203,16.5216,-112.7512,-12.6573,175.9670,0.000,0.000,0.000,0.0000,0.0000,0.0000,0.0000,0.0000,0.0000,0
2026-04-17,08:28:01,12717,1,0.0000,-0.0208,-0.0005,0.0144,-0.0132,0,1.0000,0,0,-1.3817,9.9879,-113.9010,-22.8119,175.4851,0.000,0.000,0.000,0.0000,0.0000,0.0000,0.0000,0.0000,0.0000,0
2026-04-17,08:28:01,12760,1,0.0000,0.0046,-0.0002,0.0071,-0.0133,0,1.0000,0,0,-1.7470,-9.6846,-115.6778,-37.6108,174.9096,0.000,0.000,0.000,0.0000,0.0000,0.0000,0.0000,0.0000,0.0000,0
2026-04-17,08:28:01,12803,1,0.0000,0.0342,-0.0032,0.0954,-0.0134,0,1.0000,0,0,-1.6698,2.6534,-118.6246,-59.2194,173.3976,0.000,0.000,0.000,0.0000,0.0000,0.0000,0.0000,0.0000,0.0000,0
2026-04-17,08:28:01,12836,1,0.0000,0.0437,-0.0091,0.2667,-0.0136,0,1.0000,0,0,-1.7708,-5.6604,-119.8523,-47.6895,172.1398,0.000,0.000,0.000,0.0000,0.0000,0.0000,0.0000,0.0000,0.0000,0
2026-04-17,08:28:01,12879,1,0.0000,0.0349,-0.0184,0.5412,-0.0141,0,1.0000,0,0,-3.1487,-33.6657,-120.5491,-29.2029,171.0777,0.000,0.000,0.000,0.0000,0.0000,0.0000,0.0000,0.0000,0.0000,0
2026-04-17,08:28:01,12922,1,0.0000,0.0139,-0.0202,0.5953,-0.0143,0,1.0000,0,0,-5.1124,-46.8441,-119.5222,5.0464,170.7960,0.000,0.000,0.000,0.0000,0.0000,0.0000,0.0000,0.0000,0.0000,0
2026-04-17,08:28:01,12955,1,0.0000,-0.0046,-0.0203,0.5957,-0.0143,0,1.0000,0,0,-6.9692,-54.9336,-117.0804,42.2233,170.9981,0.000,0.000,0.000,0.0000,0.0000,0.0000,0.0000,0.0000,0.0000,0
2026-04-17,08:28:01,12998,1,0.0000,-0.0007,-0.0204,0.6013,-0.0143,0,1.0000,0,0,-8.9375,-43.7193,-111.6356,100.2104,171.3506,0.000,0.000,0.000,0.0000,0.0000,0.0000,0.0000,0.0000,0.0000,0
2026-04-17,08:28:01,13031,1,0.0000,-0.0131,-0.0190,0.5576,-0.0143,0,1.0000,0,0,-10.5239,-45.1044,-106.1006,138.7855,171.9872,0.000,0.000,0.000,0.0000,0.0000,0.0000,0.0000,0.0000,0.0000,0
2026-04-17,08:28:02,13074,1,0.0000,-0.0030,-0.0197,0.5795,-0.0143,0,1.0000,0,0,-11.3312,-11.1473,-96.5112,203.3676,172.6809,0.000,0.000,0.000,0.0000,0.0000,0.0000,0.0000,0.0000,0.0000,0
2026-04-17,08:28:02,13117,1,0.0000,0.0165,-0.0213,0.6278,-0.0143,0,1.0000,0,0,-10.8845,18.3251,-84.7634,258.6196,173.5239,0.000,0.000,0.000,0.0000,0.0000,0.0000,0.0000,0.0000,0.0000,0
2026-04-17,08:28:02,13160,1,0.0000,-0.0168,-0.0184,0.5413,-0.0143,0,1.0000,0,0,-9.3017,44.2534,-73.0995,276.0628,174.4589,0.000,0.000,0.000,0.0000,0.0000,0.0000,0.0000,0.0000,0.0000,0
2026-04-17,08:28:02,13203,1,0.0000,-0.0081,-0.0171,0.5034,-0.0142,0,1.0000,0,0,-7.6032,43.7500,-62.4645,266.1553,175.4061,0.000,0.000,0.000,0.0000,0.0000,0.0000,0.0000,0.0000,0.0000,0
2026-04-17,08:28:02,13236,1,0.0000,-0.0134,-0.0156,0.4602,-0.0141,0,1.0000,0,0,-6.5401,36.4657,-56.1798,228.9643,176.3132,0.000,0.000,0.000,0.0000,0.0000,0.0000,0.0000,0.0000,0.0000,0
2026-04-17,08:28:02,13279,1,0.0000,0.0002,-0.0151,0.4449,-0.0140,0,1.0000,0,0,-4.6981,49.0753,-50.0377,180.9927,177.1305,0.000,0.000,0.000,0.0000,0.0000,0.0000,0.0000,0.0000,0.0000,0
2026-04-17,08:28:02,13322,1,0.0000,-0.0142,-0.0134,0.3950,-0.0139,0,1.0000,0,0,-2.6483,53.7197,-45.0287,147.3115,177.4566,0.000,0.000,0.000,0.0000,0.0000,0.0000,0.0000,0.0000,0.0000,0
2026-04-17,08:28:02,13365,1,0.0000,-0.0028,-0.0124,0.3648,-0.0139,0,1.0000,0,0,-0.5330,54.1423,-41.8537,103.5327,143.8822,0.000,0.000,0.000,0.0000,0.0000,0.0000,0.0000,0.0000,0.0000,0
2026-04-17,08:28:02,13408,1,0.0000,-0.0016,-0.0118,0.3481,-0.0139,0,1.0000,0,0,1.2293,38.8974,-41.1704,50.2938,127.9812,0.000,0.000,0.000,0.0000,0.0000,0.0000,0.0000,0.0000,0.0000,0
2026-04-17,08:28:02,13441,1,0.0000,0.0036,-0.0122,0.3590,-0.0139,0,1.0000,0,0,2.1653,32.8499,-42.3097,6.4789,120.2236,0.000,0.000,0.000,0.0000,0.0000,0.0000,0.0000,0.0000,0.0000,0
2026-04-17,08:28:02,13484,1,0.0000,-0.0069,-0.0109,0.3206,-0.0139,0,1.0000,0,0,4.0074,41.0693,-45.0902,-37.4457,93.6725,0.000,0.000,0.000,0.0000,0.0000,0.0000,0.0000,0.0000,0.0000,0
2026-04-17,08:28:02,13518,1,0.0000,0.0006,-0.0108,0.3173,-0.0138,0,1.0000,0,0,4.8786,34.3112,-49.9963,-61.2771,81.6935,0.000,0.000,0.000,0.0000,0.0000,0.0000,0.0000,0.0000,0.0000,0
2026-04-17,08:28:02,13561,1,0.0000,-0.0038,-0.0107,0.3160,-0.0138,0,1.0000,0,0,4.3412,-19.1373,-55.4546,-104.0796,41.0930,0.000,0.000,0.000,0.0000,0.0000,0.0000,0.0000,0.0000,0.0000,0
2026-04-17,08:28:02,13604,1,0.0000,0.0056,-0.0111,0.3252,-0.0138,0,1.0000,0,0,3.4203,-18.5496,-62.9290,-150.6461,6.7670,0.000,0.000,0.000,0.0000,0.0000,0.0000,0.0000,0.0000,0.0000,0
2026-04-17,08:28:02,13647,1,0.0000,-0.0054,-0.0096,0.2820,-0.0138,0,1.0000,0,0,2.6944,-29.9073,-71.7445,-189.6897,-21.6321,0.000,0.000,0.000,0.0000,0.0000,0.0000,0.0000,0.0000,0.0000,0
2026-04-17,08:28:02,13690,1,0.0000,-0.0049,-0.0109,0.3205,-0.0139,0,1.0000,0,0,1.3106,-35.0036,-81.9605,-226.7854,-45.6870,0.000,0.000,0.000,0.0000,0.0000,0.0000,0.0000,0.0000,0.0000,0
2026-04-17,08:28:02,13733,1,0.0000,0.0119,-0.0120,0.3529,-0.0139,0,1.0000,0,0,0.1428,-20.7902,-92.4953,-244.6889,-26.6809,0.000,0.000,0.000,0.0000,0.0000,0.0000,0.0000,0.0000,0.0000,0
2026-04-17,08:28:02,13776,1,0.0000,0.0040,-0.0131,0.3841,-0.0139,0,1.0000,0,0,-0.0468,-4.3983,-102.9572,-251.2678,-48.7501,0.000,0.000,0.000,0.0000,0.0000,0.0000,0.0000,0.0000,0.0000,0
2026-04-17,08:28:02,13818,1,0.0000,-0.0029,-0.0146,0.4285,-0.0139,0,1.0000,0,0,1.2011,34.0788,-114.1743,-270.4060,-66.2402,0.000,0.000,0.000,0.0000,0.0000,0.0000,0.0000,0.0000,0.0000,0
2026-04-17,08:28:02,13851,1,0.0000,0.0114,-0.0144,0.4226,-0.0139,0,1.0000,0,0,2.0954,29.9698,-124.2101,-292.5060,-77.2428,0.000,0.000,0.000,0.0000,0.0000,0.0000,0.0000,0.0000,0.0000,0
2026-04-17,08:28:02,13894,1,0.0000,0.0037,-0.0137,0.4019,-0.0140,0,1.0000,0,0,3.6874,36.2553,-138.8507,-328.9182,-90.6170,0.000,0.000,0.000,0.0000,0.0000,0.0000,0.0000,0.0000,0.0000,0
2026-04-17,08:28:02,13937,1,0.0000,0.0085,-0.0127,0.3744,-0.0140,0,1.0000,0,0,5.8314,33.0036,-149.9881,-249.8022,-95.4512,0.000,0.000,0.000,0.0000,0.0000,0.0000,0.0000,0.0000,0.0000,0
2026-04-17,08:28:02,13980,1,0.0000,0.0129,-0.0146,0.4294,-0.0140,0,1.0000,0,0,5.1339,-1.5541,-134.4701,214.3521,-99.9788,0.000,0.000,0.000,0.0000,0.0000,0.0000,0.0000,0.0000,0.0000,0
2026-04-17,08:28:02,14013,1,0.0000,0.0078,-0.0146,0.4294,-0.0140,0,1.0000,0,0,4.1458,-29.2218,-112.6073,497.8067,-101.3321,0.000,0.000,0.000,0.0000,0.0000,0.0000,0.0000,0.0000,0.0000,0
2026-04-17,08:28:02,14056,1,0.0000,0.0052,-0.0144,0.4226,-0.0140,0,1.0000,0,0,2.6572,-53.3651,-78.7184,803.2327,-112.1934,0.000,0.000,0.000,0.0000,0.0000,0.0000,0.0000,0.0000,0.0000,0
2026-04-17,08:28:03,14099,1,0.0000,0.0118,-0.0146,0.4292,-0.0140,0,1.0000,0,0,0.9018,-53.5358,-46.9429,814.3956,-121.6803,0.000,0.000,0.000,0.0000,0.0000,0.0000,0.0000,0.0000,0.0000,0
2026-04-17,08:28:03,14142,1,0.0000,-0.0027,-0.0138,0.4060,-0.0140,0,1.0000,0,0,-1.3390,-63.5362,-19.0860,753.7485,-130.3087,0.000,0.000,0.000,0.0000,0.0000,0.0000,0.0000,0.0000,0.0000,0
2026-04-17,08:28:03,14185,1,0.0000,-0.0048,-0.0154,0.4543,-0.0140,0,1.0000,0,0,-4.3929,-79.6008,4.2207,657.1238,-97.0122,0.000,0.060,0.000,0.0000,0.0000,0.0000,0.0000,0.0000,0.0000,0
2026-04-17,08:28:03,14218,1,0.0000,-0.0013,-0.0158,0.4652,-0.0140,0,1.0000,0,0,-6.4557,-69.7423,19.2184,582.9578,-65.7418,0.000,0.120,0.000,0.0000,0.0000,0.0000,0.0000,0.0000,0.0000,0
2026-04-17,08:28:03,14261,1,0.0000,-0.0100,-0.0143,0.4212,-0.0140,0,1.0000,0,0,-8.4258,-45.8234,36.6939,496.1066,-29.2662,0.000,0.200,0.000,0.0000,0.0000,0.0000,0.0000,0.0000,0.0000,0
2026-04-17,08:28:03,14304,1,0.0000,-0.0050,-0.0142,0.4169,-0.0140,0,1.0000,0,0,-9.1513,-17.6751,51.2799,414.5920,2.1034,0.000,0.280,0.000,0.0000,0.0000,0.0000,0.0000,0.0000,0.0000,0
2026-04-17,08:28:03,14337,1,0.0000,0.0051,-0.0158,0.4652,-0.0140,0,1.0000,0,0,-9.3704,-6.7015,60.1968,351.9889,22.6314,0.000,0.340,0.000,0.0000,0.0000,0.0000,0.0000,0.0000,0.0000,0
2026-04-17,08:28:03,14380,1,0.0000,-0.0045,-0.0147,0.4327,-0.0140,0,1.0000,0,0,-9.3598,3.1691,69.4826,273.9153,46.1102,0.000,0.420,0.000,0.0000,0.0000,0.0000,0.0000,0.0000,0.0000,0
2026-04-17,08:28:03,14423,1,0.0000,0.0036,-0.0156,0.4595,-0.0140,0,1.0000,0,0,-9.4683,5.9097,72.6190,211.1362,56.3247,0.000,0.480,0.000,0.0000,0.0000,0.0000,0.0000,0.0000,0.0000,0
2026-04-17,08:28:03,14466,1,0.0000,0.0061,-0.0153,0.4493,-0.0140,0,1.0000,0,0,-8.6644,24.0821,77.7083,155.8971,73.3964,0.000,0.560,0.000,0.0000,0.0000,0.0000,0.0000,0.0000,0.0000,0
2026-04-17,08:28:03,14509,1,0.0000,0.0036,-0.0151,0.4436,-0.0141,0,1.0000,0,0,-7.4909,27.7250,80.7623,105.3956,87.5741,0.000,0.640,0.000,0.0000,0.0000,0.0000,0.0000,0.0000,0.0000,0
2026-04-17,08:28:03,14542,1,0.0000,0.0014,-0.0149,0.4391,-0.0141,0,1.0000,0,0,-6.9377,17.9424,82.4466,79.3451,96.4902,0.000,0.700,0.000,0.0000,0.0000,0.0000,0.0000,0.0000,0.0000,0
2026-04-17,08:28:03,14575,1,0.0000,-0.0126,-0.0145,0.4277,-0.0140,0,1.0000,0,0,-6.4872,18.8649,84.0633,65.0807,104.5466,0.000,0.760,0.000,0.0000,0.0000,0.0000,0.0000,0.0000,0.0000,0
2026-04-17,08:28:03,14618,1,0.0000,-0.0073,-0.0155,0.4556,-0.0141,0,1.0000,0,0,-5.6010,22.3045,86.2178,57.8237,114.4187,0.000,0.840,0.000,0.0000,0.0000,0.0000,0.0000,0.0000,0.0000,0
2026-04-17,08:28:03,14660,1,0.0000,0.0034,-0.0147,0.4334,-0.0141,0,1.0000,0,0,-4.7848,18.9299,88.4367,55.4234,122.9397,0.000,0.920,0.000,0.0000,0.0000,0.0000,0.0000,0.0000,0.0000,0
2026-04-17,08:28:03,14696,1,0.0000,0.0056,-0.0157,0.4608,-0.0140,0,1.0000,0,0,-4.2910,15.0431,90.0482,48.7137,129.6307,0.000,0.980,0.000,0.0000,0.0000,0.0000,0.0000,0.0000,0.0000,0
2026-04-17,08:28:03,14739,1,0.0000,0.0134,-0.0164,0.4824,-0.0141,0,1.0000,0,0,-3.9622,6.7425,91.0823,31.0411,136.0302,0.000,1.000,0.000,0.0000,0.0000,0.0000,0.0000,0.0000,0.0000,0
2026-04-17,08:28:03,14772,1,0.0000,0.0072,-0.0159,0.4665,-0.0141,0,1.0000,0,0,-3.9602,0.4894,91.1866,15.4326,139.7198,0.000,1.000,0.000,0.0000,0.0000,0.0000,0.0000,0.0000,0.0000,0
2026-04-17,08:28:03,14815,1,0.0000,-0.0073,-0.0143,0.4220,-0.0140,0,1.0000,0,0,-3.8700,2.7446,90.9996,4.0012,143.5817,0.000,1.000,0.000,0.0000,0.0000,0.0000,0.0000,0.0000,0.0000,0
2026-04-17,08:28:03,14848,1,0.0000,-0.0104,-0.0146,0.4283,-0.0140,0,1.0000,0,0,-3.8979,-3.6949,91.3285,7.8718,146.1133,0.000,1.000,0.000,0.0000,0.0000,0.0000,0.0000,0.0000,0.0000,0
2026-04-17,08:28:03,14891,1,0.0000,-0.0158,-0.0135,0.3959,-0.0140,0,1.0000,0,0,-4.2553,-6.1828,91.7506,8.8956,149.7281,0.000,1.000,0.000,0.0000,0.0000,0.0000,0.0000,0.0000,0.0000,0
2026-04-17,08:28:03,14934,1,0.0000,-0.0203,-0.0134,0.3952,-0.0140,0,1.0000,0,0,-3.8673,8.8074,91.5942,0.5123,153.7929,0.000,1.000,0.000,0.0000,0.0000,0.0000,0.0000,0.0000,0.0000,0
2026-04-17,08:28:03,14977,1,0.0000,-0.0160,-0.0145,0.4276,-0.0140,0,1.0000,0,0,-2.9080,27.1405,91.3331,-2.9586,157.9416,0.000,1.000,0.000,0.0000,0.0000,0.0000,0.0000,0.0000,0.0000,0
2026-04-17,08:28:03,15020,1,0.0000,-0.0053,-0.0153,0.4493,-0.0140,0,1.0000,0,0,-0.8849,51.1511,91.6549,4.2548,162.0389,0.000,1.000,0.000,0.0000,0.0000,0.0000,0.0000,0.0000,0.0000,0
2026-04-17,08:28:04,15063,1,0.0000,-0.0087,-0.0133,0.3902,-0.0140,0,1.0000,0,0,1.9979,61.9699,91.6755,1.7097,165.0072,0.000,1.000,0.000,0.0000,0.0000,0.0000,0.0000,0.0000,0.0000,0
2026-04-17,08:28:04,15106,1,0.0000,-0.0081,-0.0131,0.3843,-0.0139,0,1.0000,0,0,3.5281,30.1837,90.8667,-11.2366,113.0570,0.000,1.000,0.000,0.0000,0.0000,0.0000,0.0000,0.0000,0.0000,0
2026-04-17,08:28:04,15149,1,0.0000,0.0001,-0.0136,0.4010,-0.0139,0,1.0000,0,0,3.8294,-0.5799,89.7444,-17.4950,109.3015,0.000,1.000,0.000,0.0000,0.0000,0.0000,0.0000,0.0000,0.0000,0
2026-04-17,08:28:04,15182,1,0.0000,-0.0060,-0.0145,0.4275,-0.0139,0,1.0000,0,0,3.4221,-15.4987,89.9199,-2.7297,116.7006,0.000,1.000,0.000,0.0000,0.0000,0.0000,0.0000,0.0000,0.0000,0
2026-04-17,08:28:04,15225,1,0.0000,-0.0082,-0.0149,0.4393,-0.0140,0,1.0000,0,0,2.3882,-31.2350,91.8905,32.3031,126.4406,0.000,1.000,0.000,0.0000,0.0000,0.0000,0.0000,0.0000,0.0000,0
2026-04-17,08:28:04,15268,1,0.0000,-0.0057,-0.0135,0.3971,-0.0139,0,1.0000,0,0,1.0841,-41.5976,93.7906,41.2954,135.3096,0.000,1.000,0.000,0.0000,0.0000,0.0000,0.0000,0.0000,0.0000,0
2026-04-17,08:28:04,15303,1,0.0000,-0.0002,-0.0133,0.3902,-0.0140,0,1.0000,0,0,2.6217,-3.7597,93.6190,30.9912,138.0892,0.000,1.000,0.000,0.0000,0.0000,0.0000,0.0000,0.0000,0.0000,0
2026-04-17,08:28:04,15337,1,0.0000,-0.0054,-0.0129,0.3794,-0.0139,0,1.0000,0,0,1.2949,-37.4705,94.8022,34.6620,143.3203,0.000,1.000,0.000,0.0000,0.0000,0.0000,0.0000,0.0000,0.0000,0
2026-04-17,08:28:04,15371,1,0.0000,-0.0056,-0.0135,0.3970,-0.0140,0,1.0000,0,0,-0.4636,-63.5932,96.8372,51.8011,147.8431,0.000,1.000,0.000,0.0000,0.0000,0.0000,0.0000,0.0000,0.0000,0
2026-04-17,08:28:04,15414,1,0.0000,0.0024,-0.0130,0.3832,-0.0139,0,1.0000,0,0,-3.5692,-84.3539,100.2163,73.1433,154.3637,0.000,1.000,0.000,0.0000,0.0000,0.0000,0.0000,0.0000,0.0000,0
2026-04-17,08:28:04,15457,1,0.0000,-0.0056,-0.0120,0.3529,-0.0139,0,1.0000,0,0,-6.8447,-86.5843,103.8150,82.6197,126.3925,0.000,1.000,0.000,0.0000,0.0000,0.0000,0.0000,0.0000,0.0000,0
2026-04-17,08:28:04,15490,1,0.0000,0.0155,-0.0142,0.4177,-0.0139,0,1.0000,0,0,-9.3012,-78.6387,106.0796,76.3701,93.8499,0.000,1.000,0.000,0.0000,0.0000,0.0000,0.0000,0.0000,0.0000,0
2026-04-17,08:28:04,15533,1,0.0000,-0.0094,-0.0122,0.3577,-0.0139,0,1.0000,0,0,-11.7147,-76.4618,107.9945,58.0371,69.6611,0.000,1.000,0.000,0.0000,0.0000,0.0000,0.0000,0.0000,0.0000,0
2026-04-17,08:28:04,15566,1,0.0000,0.0012,-0.0113,0.3313,-0.0139,0,1.0000,0,0,-15.2931,-114.1021,108.0263,28.8332,43.7819,0.000,0.980,0.000,0.0000,0.0000,0.0000,0.0000,0.0000,0.0000,0
2026-04-17,08:28:04,15599,1,0.0000,-0.0167,-0.0111,0.3265,-0.0139,0,1.0000,0,0,-18.1807,-100.9267,106.9756,-0.4568,19.9536,0.000,0.950,0.000,0.0000,0.0000,0.0000,0.0000,0.0000,0.0000,0
2026-04-17,08:28:04,15642,1,0.0000,0.0215,-0.0140,0.4118,-0.0140,0,1.0000,0,0,-21.9992,-97.7570,105.3303,-18.8171,-8.1494,0.000,0.910,0.000,0.0000,0.0000,0.0000,0.0000,0.0000,0.0000,0
2026-04-17,08:28:04,15685,1,0.0000,-0.0009,-0.0138,0.4059,-0.0139,0,1.0000,0,0,-23.9145,-49.3819,103.7590,-22.4749,-32.9866,0.000,0.870,0.000,0.0000,0.0000,0.0000,0.0000,0.0000,0.0000,0
2026-04-17,08:28:04,15718,1,0.0000,0.0040,-0.0122,0.3587,-0.0140,0,1.0000,0,0,-24.5032,-29.5943,103.0463,-14.4123,-49.6962,0.000,0.840,0.000,0.0000,0.0000,0.0000,0.0000,0.0000,0.0000,0
2026-04-17,08:28:04,15761,1,0.0000,-0.0100,-0.0128,0.3765,-0.0139,0,1.0000,0,0,-25.3115,-30.8235,103.1230,4.4031,-22.2815,0.000,0.800,0.000,0.0000,0.0000,0.0000,0.0000,0.0000,0.0000,0
2026-04-17,08:28:04,15794,1,0.0000,-0.0085,-0.0131,0.3853,-0.0140,0,1.0000,0,0,-26.3565,-36.9818,103.8883,18.3203,-0.2798,0.000,0.770,0.000,0.0000,0.0000,0.0000,0.0000,0.0000,0.0000,0
2026-04-17,08:28:04,15837,1,0.0000,0.0092,-0.0134,0.3951,-0.0140,0,1.0000,0,0,-28.9871,-71.3633,105.9990,44.4709,23.4281,0.000,0.730,0.000,0.0000,0.0000,0.0000,0.0000,0.0000,0.0000,0
2026-04-17,08:28:04,15870,1,0.0000,0.0093,-0.0145,0.4276,-0.0140,0,1.0000,0,0,-31.0525,-68.6832,108.3433,62.2602,38.5498,0.000,0.700,0.000,0.0000,0.0000,0.0000,0.0000,0.0000,0.0000,0
2026-04-17,08:28:04,15913,1,0.0000,-0.0168,-0.0125,0.3686,-0.0140,0,1.0000,0,0,-33.6748,-68.8429,112.2165,82.4625,57.1135,0.000,0.660,0.000,0.0000,0.0000,0.0000,0.0000,0.0000,0.0000,0
2026-04-17,08:28:04,15957,1,0.0000,-0.0038,-0.0127,0.3744,-0.0140,0,1.0000,0,0,-36.3553,-61.7035,116.2188,87.9748,74.0265,0.000,0.620,0.000,0.0000,0.0000,0.0000,0.0000,0.0000,0.0000,0
2026-04-17,08:28:04,16001,1,0.0000,0.0079,-0.0124,0.3637,-0.0139,0,1.0000,0,0,-38.5623,-53.7021,119.3570,75.7019,88.7053,0.000,0.580,0.000,0.0000,0.0000,0.0000,0.0000,0.0000,0.0000,0
2026-04-17,08:28:04,16044,1,0.0000,0.0071,-0.0140,0.4108,-0.0140,0,1.0000,0,0,-40.5688,-42.7172,121.5662,59.9270,88.1281,0.000,0.540,0.000,0.0000,0.0000,0.0000,0.0000,0.0000,0.0000,0
2026-04-17,08:28:05,16087,1,0.0000,-0.0054,-0.0127,0.3735,-0.0140,0,1.0000,0,0,-43.5885,-69.8858,125.6018,80.4690,94.1345,0.000,0.500,0.000,0.0000,0.0000,0.0000,0.0000,0.0000,0.0000,0
2026-04-17,08:28:05,16130,1,0.0000,-0.0253,-0.0105,0.3097,-0.0139,0,1.0000,0,0,-45.8921,-49.0923,129.4355,82.0474,106.3990,0.000,0.460,0.000,0.0000,0.0000,0.0000,0.0000,0.0000,0.0000,0
2026-04-17,08:28:05,16163,1,0.0000,-0.0105,-0.0104,0.3051,-0.0138,0,1.0000,0,0,-47.3882,-47.4609,132.4967,84.6090,110.4655,0.000,0.440,0.000,0.0000,0.0000,0.0000,0.0000,0.0000,0.0000,0
2026-04-17,08:28:05,16207,1,0.0000,-0.0013,-0.0108,0.3191,-0.0138,0,1.0000,0,0,-47.0984,19.5497,133.9362,51.3090,103.5415,0.000,0.400,0.000,0.0000,0.0000,0.0000,0.0000,0.0000,0.0000,0
2026-04-17,08:28:05,16250,1,0.0000,0.0017,-0.0098,0.2882,-0.0138,0,1.0000,0,0,-46.6078,-9.4803,141.2775,132.1942,70.0255,0.000,0.360,0.000,0.0000,0.0000,0.0000,0.0000,0.0000,0.0000,0
2026-04-17,08:28:05,16293,1,0.0000,-0.0044,-0.0069,0.2042,-0.0137,0,1.0000,0,0,-51.5503,-94.3641,149.6703,159.9028,54.3967,0.000,0.320,0.000,0.0000,0.0000,0.0000,0.0000,0.0000,0.0000,0
2026-04-17,08:28:05,16336,1,0.0000,-0.0250,-0.0025,0.0747,-0.0134,0,1.0000,0,0,-52.3876,-2.2964,149.4075,8.9686,35.4790,0.000,0.280,0.000,0.0000,0.0000,0.0000,0.0000,0.0000,0.0000,0
2026-04-17,08:28:05,16379,1,0.0000,-0.0263,-0.0012,0.0355,-0.0133,0,1.0000,0,0,-50.3453,69.2860,126.1082,-414.1281,18.9798,0.000,0.240,0.000,0.0000,0.0000,0.0000,0.0000,0.0000,0.0000,0
2026-04-17,08:28:05,16412,1,0.0000,-0.0284,0.0040,0.1171,-0.0131,0,1.0000,0,0,-43.6542,185.2364,99.9475,-645.7145,6.9308,0.000,0.210,0.000,0.0000,0.0000,0.0000,0.0000,0.0000,0.0000,0
2026-04-17,08:28:05,16455,1,0.0000,0.0054,0.0051,0.1486,-0.0130,0,1.0000,0,0,-35.6245,188.9829,65.6881,-785.0726,-7.1480,0.000,0.170,0.000,0.0000,0.0000,0.0000,0.0000,0.0000,0.0000,0
2026-04-17,08:28:05,16488,1,0.0000,0.0062,0.0040,0.1186,-0.0130,0,1.0000,0,0,-31.2961,148.6480,43.3962,-756.2515,-15.7461,0.000,0.140,0.000,0.0000,0.0000,0.0000,0.0000,0.0000,0.0000,0
2026-04-17,08:28:05,16531,1,0.0000,0.0136,0.0035,0.1021,-0.0130,0,1.0000,0,0,-26.9284,119.7041,17.7858,-683.6965,-25.2684,0.000,0.190,0.000,0.0000,0.0000,0.0000,0.0000,0.0000,0.0000,0
2026-04-17,08:28:05,16574,1,0.0000,-0.0114,0.0049,0.1441,-0.0130,0,1.0000,0,0,-20.2755,171.7001,-4.1886,-600.1059,-33.0168,0.000,0.270,0.000,0.0000,0.0000,0.0000,0.0000,0.0000,0.0000,0
2026-04-17,08:28:05,16617,1,0.0000,-0.0045,0.0048,0.1412,-0.0131,0,1.0000,0,0,-13.3524,166.6454,-22.3054,-502.5086,-41.1496,0.000,0.350,0.000,0.0000,0.0000,0.0000,0.0000,0.0000,0.0000,0
2026-04-17,08:28:05,16660,1,0.0000,0.0076,0.0028,0.0812,-0.0131,0,1.0000,0,0,-8.1474,131.3037,-36.9699,-411.1000,-49.6178,0.000,0.430,0.000,0.0000,0.0000,0.0000,0.0000,0.0000,0.0000,0
2026-04-17,08:28:05,16703,1,0.0000,-0.0028,0.0044,0.1308,-0.0131,0,1.0000,0,0,-3.4977,115.8843,-48.5979,-327.7639,-56.9863,0.000,0.510,0.000,0.0000,0.0000,0.0000,0.0000,0.0000,0.0000,0
2026-04-17,08:28:05,16746,1,0.0000,0.0016,0.0042,0.1235,-0.0131,0,1.0000,0,0,0.4720,98.2898,-57.3103,-255.0869,-62.6006,0.000,0.590,0.000,0.0000,0.0000,0.0000,0.0000,0.0000,0.0000,0
2026-04-17,08:28:05,16788,1,0.0000,-0.0041,0.0041,0.1203,-0.0131,0,1.0000,0,0,2.0836,50.8962,-64.7528,-211.3228,-67.7850,0.000,0.670,0.000,0.0000,0.0000,0.0000,0.0000,0.0000,0.0000,0
2026-04-17,08:28:05,16821,1,0.0000,-0.0032,0.0004,0.0116,-0.0131,0,1.0000,0,0,3.3233,42.2895,-70.3464,-192.0489,-71.3178,0.000,0.730,0.000,0.0000,0.0000,0.0000,0.0000,0.0000,0.0000,0
2026-04-17,08:28:05,16864,1,0.0000,0.0042,0.0005,0.0157,-0.0131,0,1.0000,0,0,4.2928,15.7875,-76.2501,-158.2049,-75.7634,0.000,0.810,0.000,0.0000,0.0000,0.0000,0.0000,0.0000,0.0000,0
2026-04-17,08:28:05,16907,1,0.0000,-0.0006,0.0047,0.1382,-0.0131,0,1.0000,0,0,4.0507,-2.2582,-80.8018,-128.5634,-79.7234,0.000,0.890,0.000,0.0000,0.0000,0.0000,0.0000,0.0000,0.0000,0
2026-04-17,08:28:05,16950,1,0.0000,-0.0052,0.0001,0.0041,-0.0131,0,1.0000,0,0,4.6834,11.4824,-85.2702,-116.0105,-83.3371,0.000,0.970,0.000,0.0000,0.0000,0.0000,0.0000,0.0000,0.0000,0
2026-04-17,08:28:05,16993,1,0.0000,-0.0010,0.0017,0.0503,-0.0132,0,1.0000,0,0,4.5429,-5.9243,-89.4345,-106.8615,-86.1716,0.000,1.000,0.000,0.0000,0.0000,0.0000,0.0000,0.0000,0.0000,0
2026-04-17,08:28:05,17026,1,0.0000,-0.0058,0.0035,0.1025,-0.0132,0,1.0000,0,0,4.3408,-6.8256,-92.2509,-96.7543,-88.0422,0.000,1.000,0.000,0.0000,0.0000,0.0000,0.0000,0.0000,0.0000,0
2026-04-17,08:28:06,17059,1,0.0000,-0.0025,0.0009,0.0263,-0.0132,0,1.0000,0,0,4.3056,-4.3031,-93.6532,-84.5399,-88.7175,0.000,1.000,0.000,0.0000,0.0000,0.0000,0.0000,0.0000,0.0000,0
2026-04-17,08:28:06,17092,1,0.0000,0.0156,0.0005,0.0141,-0.0132,0,1.0000,0,0,3.9341,-11.2210,-96.1061,-81.5647,-90.2399,0.000,1.000,0.000,0.0000,0.0000,0.0000,0.0000,0.0000,0.0000,0
2026-04-17,08:28:06,17125,1,0.0000,0.0198,-0.0001,0.0036,-0.0133,0,1.0000,0,0,3.6698,-9.2372,-98.5742,-79.4301,-91.7529,0.000,1.000,0.000,0.0000,0.0000,0.0000,0.0000,0.0000,0.0000,0
2026-04-17,08:28:06,17168,1,0.0000,0.0016,0.0001,0.0034,-0.0132,0,1.0000,0,0,3.5421,-4.2552,-102.5938,-92.6460,-93.6711,0.000,0.990,0.000,0.0000,0.0000,0.0000,0.0000,0.0000,0.0000,0
2026-04-17,08:28:06,17211,1,0.0000,-0.0038,0.0009,0.0253,-0.0132,0,1.0000,0,0,2.6399,-33.4885,-107.0718,-99.9752,-95.7786,0.000,0.950,0.000,0.0000,0.0000,0.0000,0.0000,0.0000,0.0000,0
2026-04-17,08:28:06,17254,1,0.0000,-0.0151,0.0020,0.0602,-0.0132,0,1.0000,0,0,0.7317,-47.3092,-109.7617,-77.0206,-96.9522,0.000,0.910,0.000,0.0000,0.0000,0.0000,0.0000,0.0000,0.0000,0
2026-04-17,08:28:06,17297,1,0.0000,0.0007,0.0007,0.0220,-0.0132,0,1.0000,0,0,-0.7249,-37.0231,-112.0546,-64.4935,-97.8856,0.000,0.870,0.000,0.0000,0.0000,0.0000,0.0000,0.0000,0.0000,0
2026-04-17,08:28:06,17330,1,0.0000,-0.0034,0.0012,0.0352,-0.0132,0,1.0000,0,0,-1.6599,-30.5156,-113.7300,-58.6619,-98.4600,0.000,0.840,0.000,0.0000,0.0000,0.0000,0.0000,0.0000,0.0000,0
2026-04-17,08:28:06,17373,1,0.0000,0.0006,0.0007,0.0208,-0.0132,0,1.0000,0,0,-2.8203,-28.5469,-115.9862,-57.3334,-99.2994,0.000,0.800,0.000,0.0000,0.0000,0.0000,0.0000,0.0000,0.0000,0
2026-04-17,08:28:06,17406,1,0.0000,0.0038,0.0002,0.0068,-0.0132,0,1.0000,0,0,-3.6454,-34.6786,-117.6264,-55.5425,-99.9543,0.000,0.770,0.000,0.0000,0.0000,0.0000,0.0000,0.0000,0.0000,0
2026-04-17,08:28:06,17449,1,0.0000,0.0317,-0.0012,0.0354,-0.0133,0,1.0000,0,0,-4.7227,-21.5722,-118.5684,-37.0683,-101.1187,0.000,0.730,0.000,0.0000,0.0000,0.0000,0.0000,0.0000,0.0000,0
2026-04-17,08:28:06,17493,1,0.0000,0.0272,0.0006,0.0177,-0.0133,0,1.0000,0,0,-5.0569,-9.9400,-119.8491,-32.4445,-101.4904,0.000,0.690,0.000,0.0000,0.0000,0.0000,0.0000,0.0000,0.0000,0
2026-04-17,08:28:06,17537,1,0.0000,-0.0026,0.0001,0.0034,-0.0132,0,1.0000,0,0,-5.4686,-8.8266,-120.9279,-27.8284,-101.8074,0.000,0.650,0.000,0.0000,0.0000,0.0000,0.0000,0.0000,0.0000,0
2026-04-17,08:28:06,17580,1,0.0000,-0.0049,0.0002,0.0068,-0.0132,0,1.0000,0,0,-5.7343,-7.5992,-121.7766,-23.3705,-102.0236,0.000,0.610,0.000,0.0000,0.0000,0.0000,0.0000,0.0000,0.0000,0
2026-04-17,08:28:06,17623,1,0.0000,-0.0084,0.0000,0.0000,-0.0132,0,1.0000,0,0,-6.1292,-12.0844,-122.3720,-17.7234,-102.1751,0.000,0.570,0.000,0.0000,0.0000,0.0000,0.0000,0.0000,0.0000,0
2026-04-17,08:28:06,17666,1,0.0000,0.0035,-0.0001,0.0037,-0.0132,0,1.0000,0,0,-6.3407,-5.5325,-122.6131,-9.8529,-102.3424,0.000,0.530,0.000,0.0000,0.0000,0.0000,0.0000,0.0000,0.0000,0
2026-04-17,08:28:06,17709,1,0.0000,0.0029,-0.0007,0.0218,-0.0132,0,1.0000,0,0,-6.4669,-3.6086,-122.7646,-6.0186,-102.4905,0.000,0.490,0.000,0.0000,0.0000,0.0000,0.0000,0.0000,0.0000,0
2026-04-17,08:28:06,17742,1,0.0000,-0.0074,0.0007,0.0216,-0.0132,0,1.0000,0,0,-6.6185,-4.8261,-122.8618,-4.4927,-102.5668,0.000,0.460,0.000,0.0000,0.0000,0.0000,0.0000,0.0000,0.0000,0
2026-04-17,08:28:06,17785,1,0.0000,-0.0020,0.0008,0.0243,-0.0132,0,1.0000,0,0,-6.7147,-2.3766,-122.7058,1.4817,-102.6170,0.000,0.420,0.000,0.0000,0.0000,0.0000,0.0000,0.0000,0.0000,0
2026-04-17,08:28:06,17818,1,0.0000,0.0103,-0.0005,0.0141,-0.0132,0,1.0000,0,0,-6.7629,-1.6776,-122.4061,6.1037,-102.6989,0.000,0.390,0.000,0.0000,0.0000,0.0000,0.0000,0.0000,0.0000,0
2026-04-17,08:28:06,17861,1,0.0000,-0.0055,-0.0012,0.0352,-0.0132,0,1.0000,0,0,-6.8746,-3.2223,-122.0467,7.4862,-102.8113,0.000,0.350,0.000,0.0000,0.0000,0.0000,0.0000,0.0000,0.0000,0
2026-04-17,08:28:06,17904,1,0.0000,-0.0128,0.0002,0.0068,-0.0132,0,1.0000,0,0,-6.9348,-0.8528,-121.9740,3.3269,-102.8973,0.000,0.310,0.000,0.0000,0.0000,0.0000,0.0000,0.0000,0.0000,0
2026-04-17,08:28:06,17940,1,0.0000,0.0006,0.0002,0.0069,-0.0132,0,1.0000,0,0,-6.9605,-0.7921,-121.9883,2.4913,-102.8995,0.000,0.290,0.000,0.0000,0.0000,0.0000,0.0000,0.0000,0.0000,0
2026-04-17,08:28:06,17973,1,0.0000,0.0051,-0.0000,0.0003,-0.0132,0,1.0000,0,0,-7.0433,-2.2186,-122.1368,-1.6214,-102.9378,0.000,0.260,0.000,0.0000,0.0000,0.0000,0.0000,0.0000,0.0000,0
2026-04-17,08:28:06,18016,1,0.0000,-0.0073,0.0005,0.0144,-0.0132,0,1.0000,0,0,-7.0871,-1.0889,-122.2380,-2.1932,-103.0004,0.000,0.220,0.000,0.0000,0.0000,0.0000,0.0000,0.0000,0.0000,0
2026-04-17,08:28:06,18049,1,0.0000,-0.0006,0.0007,0.0219,-0.0132,0,1.0000,0,0,-7.1000,-0.4550,-122.2263,-0.6765,-103.0366,0.000,0.190,0.000,0.0000,0.0000,0.0000,0.0000,0.0000,0.0000,0
2026-04-17,08:28:07,18092,1,0.0000,0.0066,0.0001,0.0034,-0.0132,0,1.0000,0,0,-7.1741,-1.5466,-122.0971,1.8701,-103.0624,0.000,0.150,0.000,0.0000,0.0000,0.0000,0.0000,0.0000,0.0000,0
2026-04-17,08:28:07,18135,1,0.0000,0.0063,0.0007,0.0212,-0.0132,0,1.0000,0,0,-7.1723,0.2925,-122.0876,0.3762,-103.0921,0.000,0.110,0.000,0.0000,0.0000,0.0000,0.0000,0.0000,0.0000,0
2026-04-17,08:28:07,18178,1,0.0000,-0.0190,0.0005,0.0149,-0.0132,0,1.0000,0,0,-7.2093,-1.1635,-122.2609,-3.1414,-103.1390,0.000,0.070,0.000,0.0000,0.0000,0.0000,0.0000,0.0000,0.0000,0
2026-04-17,08:28:07,18221,1,0.0000,-0.0028,0.0009,0.0257,-0.0132,0,1.0000,0,0,-7.2283,-0.5143,-122.3772,-2.6830,-103.1274,0.000,0.030,0.000,0.0000,0.0000,0.0000,0.0000,0.0000,0.0000,0
2026-04-17,08:28:07,18254,1,0.0000,-0.0017,0.0003,0.0103,-0.0132,0,1.0000,0,0,-7.2311,0.1260,-122.4163,-1.8246,-103.1457,0.000,0.000,0.000,0.0000,0.0000,0.0000,0.0000,0.0000,0.0000,0
2026-04-17,08:28:07,18287,1,0.0000,0.0063,0.0005,0.0138,-0.0132,0,1.0000,0,0,-7.2186,0.0123,-122.4191,-1.0081,-103.1638,0.000,0.000,0.000,0.0000,0.0000,0.0000,0.0000,0.0000,0.0000,0
2026-04-17,08:28:07,18330,1,0.0000,-0.0069,0.0008,0.0250,-0.0132,0,1.0000,0,0,-7.2495,-0.2182,-122.3727,0.4285,-103.2010,0.000,0.000,0.000,0.0000,0.0000,0.0000,0.0000,0.0000,0.0000,0
2026-04-17,08:28:07,18373,1,0.0000,0.0036,0.0001,0.0041,-0.0132,0,1.0000,0,0,-7.2458,-0.0525,-122.3620,0.2435,-103.2097,0.000,0.000,0.000,0.0000,0.0000,0.0000,0.0000,0.0000,0.0000,0
2026-04-17,08:28:07,18406,1,0.0000,-0.0028,-0.0004,0.0109,-0.0132,0,1.0000,0,0,-7.3152,-1.3131,-122.4627,-1.8076,-103.2505,0.000,0.000,0.000,0.0000,0.0000,0.0000,0.0000,0.0000,0.0000,0
2026-04-17,08:28:07,18449,1,0.0000,-0.0056,0.0005,0.0137,-0.0132,0,1.0000,0,0,-7.2740,-1.5149,-122.5127,-1.3316,-103.1772,0.000,0.000,0.000,0.0000,0.0000,0.0000,0.0000,0.0000,0.0000,0
2026-04-17,08:28:07,18483,1,0.0000,0.0038,-0.0010,0.0287,-0.0132,0,1.0000,0,0,-7.2847,0.4121,-122.5029,-0.2480,-103.2427,0.000,0.000,0.000,0.0000,0.0000,0.0000,0.0000,0.0000,0.0000,0
2026-04-17,08:28:07,18526,1,0.0000,-0.0020,-0.0006,0.0181,-0.0132,0,1.0000,0,0,-7.2939,-0.1135,-122.6281,-2.8301,-103.2701,0.000,0.000,0.000,0.0000,0.0000,0.0000,0.0000,0.0000,0.0000,0
2026-04-17,08:28:07,18559,1,0.0000,-0.0062,0.0003,0.0102,-0.0132,0,1.0000,0,0,-7.2388,0.8648,-122.7670,-3.5453,-103.2743,0.000,0.000,0.000,0.0000,0.0000,0.0000,0.0000,0.0000,0.0000,0
2026-04-17,08:28:07,18602,1,0.0000,0.0041,-0.0000,0.0003,-0.0132,0,1.0000,0,0,-7.2713,-0.5036,-122.7908,-1.5112,-103.2430,0.000,0.000,0.000,0.0000,0.0000,0.0000,0.0000,0.0000,0.0000,0
2026-04-17,08:28:07,18645,1,0.0000,-0.0083,-0.0001,0.0038,-0.0132,0,1.0000,0,0,-7.2598,0.7508,-122.8955,-2.4540,-103.2882,0.000,0.000,0.000,0.0000,0.0000,0.0000,0.0000,0.0000,0.0000,0
2026-04-17,08:28:07,18678,1,0.0000,0.0145,0.0001,0.0037,-0.0132,0,1.0000,0,0,-7.2289,0.4578,-123.0550,-3.8709,-103.3169,0.000,0.000,0.000,0.0000,0.0000,0.0000,0.0000,0.0000,0.0000,0
2026-04-17,08:28:07,18722,1,0.0000,0.0063,0.0012,0.0358,-0.0132,0,1.0000,0,0,-7.2739,-0.5060,-123.1151,-2.3981,-103.2714,0.000,0.000,0.000,0.0000,0.0000,0.0000,0.0000,0.0000,0.0000,0
2026-04-17,08:28:07,18766,1,0.0000,-0.0033,-0.0001,0.0038,-0.0132,0,1.0000,0,0,-7.2790,-0.0003,-123.1733,-1.6712,-103.2317,0.000,0.000,0.000,0.0000,0.0000,0.0000,0.0000,0.0000,0.0000,0
2026-04-17,08:28:07,18799,1,0.0000,0.0048,0.0006,0.0178,-0.0132,0,1.0000,0,0,-7.2836,-0.0620,-123.1771,-1.3301,-103.2488,0.000,0.000,0.000,0.0000,0.0000,0.0000,0.0000,0.0000,0.0000,0
2026-04-17,08:28:07,18841,1,0.0000,-0.0114,-0.0001,0.0038,-0.0132,0,1.0000,0,0,-7.2752,0.2426,-123.1586,0.0630,-103.2971,0.000,0.000,0.000,0.0000,0.0000,0.0000,0.0000,0.0000,0.0000,0
2026-04-17,08:28:07,18884,1,0.0000,-0.0055,0.0004,0.0106,-0.0132,0,1.0000,0,0,-7.2402,0.2925,-123.0099,2.3880,-103.2729,0.000,0.000,0.000,0.0000,0.0000,0.0000,0.0000,0.0000,0.0000,0
2026-04-17,08:28:07,18917,1,0.0000,0.0019,-0.0001,0.0034,-0.0132,0,1.0000,0,0,-7.3048,-2.0448,-122.8142,4.7037,-103.2785,0.000,0.000,0.000,0.0000,0.0000,0.0000,0.0000,0.0000,0.0000,0
2026-04-17,08:28:07,18960,1,0.0000,-0.0117,0.0001,0.0042,-0.0132,0,1.0000,0,0,-7.2556,1.7550,-122.6577,4.0873,-103.2488,0.000,0.000,0.000,0.0000,0.0000,0.0000,0.0000,0.0000,0.0000,0
2026-04-17,08:28:07,18993,1,0.0000,-0.0024,0.0001,0.0034,-0.0132,0,1.0000,0,0,-7.2796,-0.0286,-122.5681,3.4906,-103.2813,0.000,0.000,0.000,0.0000,0.0000,0.0000,0.0000,0.0000,0.0000,0
2026-04-17,08:28:07,19036,1,0.0000,-0.0076,0.0002,0.0068,-0.0132,0,1.0000,0,0,-7.2928,-0.4582,-122.4383,3.5152,-103.2904,0.000,0.000,0.000,0.0000,0.0000,0.0000,0.0000,0.0000,0.0000,0
2026-04-17,08:28:08,19079,1,0.0000,0.0049,0.0011,0.0322,-0.0132,0,1.0000,0,0,-7.2425,1.1860,-122.2773,3.4210,-103.2671,0.000,0.000,0.000,0.0000,0.0000,0.0000,0.0000,0.0000,0.0000,0
2026-04-17,08:28:08,19122,1,0.0000,-0.0087,0.0008,0.0250,-0.0132,0,1.0000,0,0,-7.2520,0.0251,-122.2957,0.7489,-103.2544,0.000,0.000,0.000,0.0000,0.0000,0.0000,0.0000,0.0000,0.0000,0
2026-04-17,08:28:08,19155,1,0.0000,-0.0083,0.0007,0.0216,-0.0132,0,1.0000,0,0,-7.2880,-0.5735,-122.3050,0.1637,-103.2426,0.000,0.000,0.000,0.0000,0.0000,0.0000,0.0000,0.0000,0.0000,0
2026-04-17,08:28:08,19197,1,0.0000,0.0006,-0.0004,0.0109,-0.0132,0,1.0000,0,0,-7.2114,1.6078,-122.3360,-0.7143,-103.2593,0.000,0.000,0.000,0.0000,0.0000,0.0000,0.0000,0.0000,0.0000,0
2026-04-17,08:28:08,19239,1,0.0000,-0.0017,-0.0001,0.0034,-0.0132,0,1.0000,0,0,-7.2134,-0.2148,-122.5054,-3.3384,-103.2566,0.000,0.000,0.000,0.0000,0.0000,0.0000,0.0000,0.0000,0.0000,0
2026-04-17,08:28:08,19282,1,0.0000,0.0002,-0.0001,0.0031,-0.0132,0,1.0000,0,0,-7.2175,-0.1944,-122.6245,-2.9611,-103.2597,0.000,0.000,0.000,0.0000,0.0000,0.0000,0.0000,0.0000,0.0000,0
2026-04-17,08:28:08,19325,1,0.0000,-0.0106,0.0003,0.0076,-0.0132,0,1.0000,0,0,-7.1813,0.9642,-122.7998,-4.2032,-103.2858,0.000,0.000,0.000,0.0000,0.0000,0.0000,0.0000,0.0000,0.0000,0
2026-04-17,08:28:08,19368,1,0.0000,-0.0090,0.0001,0.0034,-0.0132,0,1.0000,0,0,-7.1882,0.1732,-122.9923,-4.6182,-103.2519,0.000,0.000,0.000,0.0000,0.0000,0.0000,0.0000,0.0000,0.0000,0
2026-04-17,08:28:08,19401,1,0.0000,-0.0084,0.0006,0.0186,-0.0132,0,1.0000,0,0,-7.1987,0.0932,-122.9995,-2.2397,-103.2458,0.000,0.000,0.000,0.0000,0.0000,0.0000,0.0000,0.0000,0.0000,0
2026-04-17,08:28:08,19444,1,0.0000,0.0007,0.0005,0.0144,-0.0132,0,1.0000,0,0,-7.1692,0.6957,-122.8763,1.3781,-103.2506,0.000,0.000,0.000,0.0000,0.0000,0.0000,0.0000,0.0000,0.0000,0
2026-04-17,08:28:08,19477,1,0.0000,0.0044,0.0013,0.0393,-0.0132,0,1.0000,0,0,-7.1925,-0.3891,-122.7226,3.3010,-103.2376,0.000,0.000,0.000,0.0000,0.0000,0.0000,0.0000,0.0000,0.0000,0
2026-04-17,08:28:08,19520,1,0.0000,0.0097,0.0001,0.0034,-0.0132,0,1.0000,0,0,-7.1905,0.0957,-122.5899,2.8882,-103.2414,0.000,0.000,0.000,0.0000,0.0000,0.0000,0.0000,0.0000,0.0000,0
2026-04-17,08:28:08,19563,1,0.0000,0.0075,-0.0000,0.0000,-0.0132,0,1.0000,0,0,-7.1644,0.6862,-122.6833,-0.6684,-103.2511,0.000,0.000,0.000,0.0000,0.0000,0.0000,0.0000,0.0000,0.0000,0
2026-04-17,08:28:08,19596,1,0.0000,-0.0002,-0.0007,0.0219,-0.0132,0,1.0000,0,0,-7.1633,0.0180,-122.7735,-1.8050,-103.2617,0.000,0.000,0.000,0.0000,0.0000,0.0000,0.0000,0.0000,0.0000,0
2026-04-17,08:28:08,19640,1,0.0000,0.0002,0.0000,0.0000,-0.0132,0,1.0000,0,0,-7.1872,-1.4922,-122.8068,-0.9362,-103.3075,0.000,0.000,0.000,0.0000,0.0000,0.0000,0.0000,0.0000,0.0000,0
2026-04-17,08:28:08,19674,1,0.0000,0.0098,0.0007,0.0209,-0.0132,0,1.0000,0,0,-7.1984,-0.9935,-122.6642,0.2644,-103.3227,0.000,0.000,0.000,0.0000,0.0000,0.0000,0.0000,0.0000,0.0000,0
2026-04-17,08:28:08,19707,1,0.0000,0.0120,0.0009,0.0252,-0.0132,0,1.0000,0,0,-7.0889,2.2586,-122.4446,3.4809,-103.1054,0.000,0.000,0.000,0.0000,0.0000,0.0000,0.0000,0.0000,0.0000,0
2026-04-17,08:28:08,19750,1,0.0000,-0.0001,0.0007,0.0209,-0.0132,0,1.0000,0,0,-7.2237,-2.8493,-122.3808,2.0601,-103.1441,0.000,0.000,0.000,0.0000,0.0000,0.0000,0.0000,0.0000,0.0000,0
2026-04-17,08:28:08,19793,1,0.0000,0.0044,0.0001,0.0034,-0.0132,0,1.0000,0,0,-7.0553,4.4286,-122.3931,0.2362,-103.2208,0.000,0.000,0.000,0.0000,0.0000,0.0000,0.0000,0.0000,0.0000,0
2026-04-17,08:28:08,19836,1,0.0000,-0.0031,0.0000,0.0000,-0.0132,0,1.0000,0,0,-6.9682,2.1336,-122.4771,-1.0899,-103.2191,0.000,0.000,0.000,0.0000,0.0000,0.0000,0.0000,0.0000,0.0000,0
2026-04-17,08:28:08,19869,1,0.0000,-0.0085,-0.0006,0.0182,-0.0132,0,1.0000,0,0,-6.9934,-0.7194,-122.4292,0.2742,-103.1010,0.000,0.000,0.000,0.0000,0.0000,0.0000,0.0000,0.0000,0.0000,0
2026-04-17,08:28:08,19902,1,0.0000,0.0051,0.0001,0.0031,-0.0132,0,1.0000,0,0,-7.0332,0.2228,-122.4239,0.1145,-103.1356,0.000,0.000,0.000,0.0000,0.0000,0.0000,0.0000,0.0000,0.0000,0
2026-04-17,08:28:08,19945,1,0.0000,0.0002,0.0002,0.0072,-0.0132,0,1.0000,0,0,-6.8509,3.3239,-122.2929,2.3674,-103.2286,0.000,0.000,0.000,0.0000,0.0000,0.0000,0.0000,0.0000,0.0000,0
2026-04-17,08:28:08,19988,1,0.0000,0.0056,0.0007,0.0209,-0.0132,0,1.0000,0,0,-6.8594,-0.6848,-121.9919,6.0032,-103.2177,0.000,0.000,0.000,0.0000,0.0000,0.0000,0.0000,0.0000,0.0000,0
2026-04-17,08:28:08,20031,1,0.0000,0.0019,0.0005,0.0147,-0.0132,0,1.0000,0,0,-6.8363,0.8840,-121.7494,5.3799,-103.1269,0.000,0.000,0.000,0.0000,0.0000,0.0000,0.0000,0.0000,0.0000,0
