Date,Time,Timestamp_ms,Kite_ID,Commanded_Vel_rps,Actual_Vel_rps,Torque_Nm,Tension_N,Line_Length_m,Target_Enabled,Target_Length_m,Remote_Joy,Remote_Active,Pitch_deg,Pitch_Vel_dps,Yaw_deg,Yaw_Vel_dps,Roll_deg,Dive_Conf,AWW_Conf,AF_Conf,Kite_Pitch_deg,Kite_Roll_deg,Kite_Yaw_deg,Kite_Gyro_X,Kite_Gyro_Y,Kite_Gyro_Z,Kite_IMU_Battery
2026-04-17,12:54:19,0,1,-7.9840,-3.8574,0.1069,3.1439,1.4606,0,1.0000,-998,1,10.9551,-4.7572,-93.1680,35.6551,171.7579,0.000,0.000,0.528,0.0000,0.0000,0.0000,0.0000,0.0000,0.0000,0
2026-04-17,12:54:19,1,1,-7.9840,-3.9310,0.1179,3.4686,1.4897,0,1.0000,-998,1,10.7555,-5.0169,-91.9686,35.4686,171.7011,0.000,0.000,0.552,0.0000,0.0000,0.0000,0.0000,0.0000,0.0000,0
2026-04-17,12:54:19,1,1,-7.9840,-4.0080,0.0998,2.9345,1.5256,0,1.0000,-998,1,11.0218,3.4664,-91.9886,20.5255,171.7169,0.000,0.000,0.584,0.0000,0.0000,0.0000,0.0000,0.0000,0.0000,0
2026-04-17,12:54:19,2,1,-7.9840,-3.7596,0.1157,3.4022,1.5534,0,1.0000,-998,1,11.3105,6.0417,-92.3023,10.8284,171.6883,0.000,0.000,0.608,0.0000,0.0000,0.0000,0.0000,0.0000,0.0000,0
2026-04-17,12:54:19,2,1,-7.9840,-3.8441,0.1158,3.4058,1.5806,0,1.0000,-998,1,11.0197,-2.7632,-92.7341,3.1744,171.6885,0.000,0.000,0.632,0.0000,0.0000,0.0000,0.0000,0.0000,0.0000,0
2026-04-17,12:54:19,3,1,-7.9840,-3.8722,0.1050,3.0891,1.6156,0,1.0000,-998,1,10.5724,-7.6357,-92.5809,3.7296,171.6771,0.000,0.000,0.664,0.0000,0.0000,0.0000,0.0000,0.0000,0.0000,0
2026-04-17,12:54:19,5,1,-7.9840,-3.8181,0.1023,3.0079,1.6426,0,1.0000,-998,1,10.5266,-4.6584,-91.8900,9.3515,171.7091,0.000,0.000,0.688,0.0000,0.0000,0.0000,0.0000,0.0000,0.0000,0
2026-04-17,12:54:19,6,1,-7.9840,-3.5767,0.1074,3.1588,1.6694,0,1.0000,-998,1,10.3378,-4.5830,-91.3267,11.4044,171.7303,0.000,0.000,0.712,0.0000,0.0000,0.0000,0.0000,0.0000,0.0000,0
2026-04-17,12:54:19,7,1,-7.9840,-3.7339,0.0943,2.7738,1.7031,0,1.0000,-998,1,10.3006,-1.9309,-91.1606,8.1968,171.6886,0.000,0.000,0.744,0.0000,0.0000,0.0000,0.0000,0.0000,0.0000,0
2026-04-17,12:54:19,7,1,-7.9840,-3.4926,0.0994,2.9226,1.7288,0,1.0000,-998,1,10.3880,-0.0986,-90.2227,16.1064,171.6900,0.000,0.000,0.768,0.0000,0.0000,0.0000,0.0000,0.0000,0.0000,0
2026-04-17,12:54:19,8,1,-7.9840,-3.6859,0.0960,2.8222,1.7547,0,1.0000,-998,1,10.1593,-3.7935,-88.2571,29.6115,171.6867,0.000,0.000,0.792,0.0000,0.0000,0.0000,0.0000,0.0000,0.0000,0
2026-04-17,12:54:19,8,1,-7.9840,-3.6411,0.1199,3.5251,1.7861,0,1.0000,-998,1,10.2117,-0.3281,-84.7278,53.2944,171.7417,0.000,0.000,0.824,0.0000,0.0000,0.0000,0.0000,0.0000,0.0000,0
2026-04-17,12:54:19,9,1,-7.9840,-3.6758,0.1019,2.9962,1.8123,0,1.0000,-998,1,9.9522,-4.5772,-81.3041,67.5179,171.7159,0.000,0.000,0.848,0.0000,0.0000,0.0000,0.0000,0.0000,0.0000,0
2026-04-17,12:54:19,10,1,-7.9840,-3.7609,0.1020,2.9993,1.8387,0,1.0000,-998,1,10.0005,-1.4879,-77.7438,80.1163,171.7168,0.000,0.000,0.872,0.0000,0.0000,0.0000,0.0000,0.0000,0.0000,0
2026-04-17,12:54:19,11,1,-7.9840,-3.8346,0.1087,3.1972,1.8650,0,1.0000,-998,1,10.0317,-0.4636,-75.1551,79.3513,171.7338,0.000,0.000,0.896,0.0000,0.0000,0.0000,0.0000,0.0000,0.0000,0
2026-04-17,12:54:19,11,1,-7.9840,-3.8481,0.1135,3.3372,1.8931,0,1.0000,-998,1,9.8376,-3.3075,-73.2801,71.0675,171.7716,0.000,0.000,0.920,0.0000,0.0000,0.0000,0.0000,0.0000,0.0000,0
2026-04-17,12:54:19,12,1,-7.9840,-3.9963,0.1030,3.0287,1.9292,0,1.0000,-998,1,9.8527,0.0354,-71.9838,53.4143,171.7409,0.000,0.000,0.952,0.0000,0.0000,0.0000,0.0000,0.0000,0.0000,0
2026-04-17,12:54:19,13,1,-7.9840,-3.8650,0.1153,3.3920,1.9578,0,1.0000,-998,1,9.8927,0.6133,-72.1942,34.0274,171.7329,0.000,0.000,0.976,0.0000,0.0000,0.0000,0.0000,0.0000,0.0000,0
2026-04-17,12:54:19,13,1,-7.9840,-3.9895,0.1173,3.4492,1.9866,0,1.0000,-998,1,9.7168,-2.1334,-72.8029,17.6354,171.7424,0.000,0.000,1.000,0.0000,0.0000,0.0000,0.0000,0.0000,0.0000,0
2026-04-17,12:54:19,15,1,-3.9782,-4.1652,0.1080,3.1764,2.0158,0,1.0000,-998,0,9.6712,-1.3673,-72.5841,14.3116,171.7773,0.000,0.000,1.000,0.0000,0.0000,0.0000,0.0000,0.0000,0.0000,0
2026-04-17,12:54:19,16,1,-3.9782,-3.9943,0.1203,3.5377,2.0443,0,1.0000,-998,0,9.6397,-1.5804,-72.2164,13.2586,171.7459,0.000,0.000,1.000,0.0000,0.0000,0.0000,0.0000,0.0000,0.0000,0
2026-04-17,12:54:20,42,1,-3.9782,-3.9892,0.1307,3.8432,2.0730,0,1.0000,-998,0,9.6350,-0.7064,-71.2835,18.0481,171.7357,0.000,0.000,1.000,0.0000,0.0000,0.0000,0.0000,0.0000,0.0000,0
2026-04-17,12:54:20,43,1,-3.9782,-3.9041,0.1161,3.4141,2.1023,0,1.0000,-998,0,9.5370,-2.2786,-69.3365,30.5509,171.7270,0.000,0.000,1.000,0.0000,0.0000,0.0000,0.0000,0.0000,0.0000,0
2026-04-17,12:54:20,43,1,-3.9782,-4.0512,0.1289,3.7918,2.1392,0,1.0000,-998,0,9.5296,-0.3334,-68.0066,29.5346,171.6393,0.000,0.000,1.000,0.0000,0.0000,0.0000,0.0000,0.0000,0.0000,0
2026-04-17,12:54:20,44,1,-3.9782,-3.9198,0.1253,3.6851,2.1678,0,1.0000,-998,0,9.4662,-0.9083,-68.3513,16.8062,171.6398,0.000,0.000,1.000,0.0000,0.0000,0.0000,0.0000,0.0000,0.0000,0
2026-04-17,12:54:20,44,1,-3.9782,-3.7955,0.1123,3.3021,2.2038,0,1.0000,-998,0,9.2714,-3.5953,-69.3029,0.7504,171.5883,0.000,0.000,1.000,0.0000,0.0000,0.0000,0.0000,0.0000,0.0000,0
2026-04-17,12:54:20,45,1,-3.8667,-3.9229,0.1095,3.2197,2.2314,0,1.0000,-998,0,9.1972,-2.3232,-69.7234,-3.6581,171.5647,0.000,0.000,1.000,0.0000,0.0000,0.0000,0.0000,0.0000,0.0000,0
2026-04-17,12:54:20,46,1,-3.7419,-3.8438,0.1044,3.0717,2.2592,0,1.0000,-998,0,9.3398,1.7301,-70.1025,-5.7977,171.5788,0.000,0.000,1.000,0.0000,0.0000,0.0000,0.0000,0.0000,0.0000,0
2026-04-17,12:54:20,47,1,-3.7419,-3.7359,0.1124,3.3046,2.2940,0,1.0000,-998,0,9.2831,-0.8272,-70.5742,-7.8335,171.5485,0.000,0.000,1.000,0.0000,0.0000,0.0000,0.0000,0.0000,0.0000,0
2026-04-17,12:54:20,49,1,-3.7419,-3.7866,0.1239,3.6446,2.3216,0,1.0000,-998,0,9.1774,-2.0311,-69.6915,2.8052,171.5734,0.000,0.000,1.000,0.0000,0.0000,0.0000,0.0000,0.0000,0.0000,0
2026-04-17,12:54:20,49,1,-3.7419,-3.7546,0.1284,3.7755,2.3482,0,1.0000,-998,0,9.0337,-3.2457,-69.5075,3.2610,171.5106,0.000,0.000,1.000,0.0000,0.0000,0.0000,0.0000,0.0000,0.0000,0
2026-04-17,12:54:20,50,1,-3.7419,-3.6633,0.1217,3.5782,2.3750,0,1.0000,-998,0,8.9874,-1.9834,-70.2757,-5.0911,171.5515,0.000,0.000,1.000,0.0000,0.0000,0.0000,0.0000,0.0000,0.0000,0
2026-04-17,12:54:20,51,1,-3.7419,-3.7599,0.1326,3.8988,2.4026,0,1.0000,-998,0,8.8219,-3.9422,-71.2684,-13.2617,171.5362,0.000,0.000,1.000,0.0000,0.0000,0.0000,0.0000,0.0000,0.0000,0
2026-04-17,12:54:20,51,1,-3.7419,-3.8541,0.1375,4.0430,2.4288,0,1.0000,-998,0,8.8742,-0.8509,-72.4807,-20.4847,171.5003,0.000,0.000,1.000,0.0000,0.0000,0.0000,0.0000,0.0000,0.0000,0
2026-04-17,12:54:20,52,1,-7.9840,-3.7190,0.1245,3.6631,2.4555,0,1.0000,-998,1,8.8226,-0.8923,-73.4333,-22.8172,171.5486,0.000,0.000,1.000,0.0000,0.0000,0.0000,0.0000,0.0000,0.0000,0
2026-04-17,12:54:20,53,1,-7.9840,-2.7551,0.1546,4.5472,2.4885,0,1.0000,-998,1,9.1299,9.3819,-72.8223,-7.5420,171.6370,0.000,0.000,1.000,0.0000,0.0000,0.0000,0.0000,0.0000,0.0000,0
2026-04-17,12:54:20,54,1,-7.9840,-2.7758,0.1821,5.3563,2.5145,0,1.0000,-998,1,9.2137,3.6168,-72.3282,-0.1151,171.8804,0.000,0.000,1.000,0.0000,0.0000,0.0000,0.0000,0.0000,0.0000,0
2026-04-17,12:54:20,54,1,-7.9840,-2.7034,0.1493,4.3916,2.5329,0,1.0000,-998,1,10.1953,18.2396,-72.1421,1.6241,151.2526,0.000,0.000,1.000,0.0000,0.0000,0.0000,0.0000,0.0000,0.0000,0
2026-04-17,12:54:20,55,1,-7.9840,-2.9442,0.1302,3.8295,2.5534,0,1.0000,-998,1,10.6115,13.0174,-69.3768,28.0181,145.5621,0.000,0.000,1.000,0.0000,0.0000,0.0000,0.0000,0.0000,0.0000,0
2026-04-17,12:54:20,55,1,-7.9840,-3.0614,0.0947,2.7846,2.5754,0,1.0000,-998,1,9.1592,-21.2081,-66.4146,47.3432,146.4783,0.000,0.000,1.000,0.0000,0.0000,0.0000,0.0000,0.0000,0.0000,0
2026-04-17,12:54:20,56,1,-7.9840,-3.1161,0.0659,1.9385,2.5972,0,1.0000,-998,1,8.1942,-23.2718,-65.1434,43.2595,147.1161,0.032,0.000,1.000,0.0000,0.0000,0.0000,0.0000,0.0000,0.0000,0
2026-04-17,12:54:20,58,1,-7.9840,-2.5040,0.1324,3.8955,2.6171,0,1.0000,-998,1,7.5636,-20.6668,-65.7375,24.2108,148.0924,0.080,0.000,1.000,0.0000,0.0000,0.0000,0.0000,0.0000,0.0000,0
2026-04-17,12:54:20,59,1,-7.9840,-2.6570,0.1345,3.9554,2.6400,0,1.0000,-998,1,7.0983,-10.8192,-66.1862,10.2735,150.1602,0.144,0.000,1.000,0.0000,0.0000,0.0000,0.0000,0.0000,0.0000,0
2026-04-17,12:54:20,90,1,-7.9840,-2.6525,0.1178,3.4650,2.6592,0,1.0000,-998,1,8.1740,13.9961,-66.5600,3.7510,137.6707,0.192,0.000,1.000,0.0000,0.0000,0.0000,0.0000,0.0000,0.0000,0
2026-04-17,12:54:20,92,1,-7.9840,-2.5736,0.0853,2.5101,2.6786,0,1.0000,-998,1,8.3286,6.8204,-65.9324,8.6453,139.9114,0.168,0.000,1.000,0.0000,0.0000,0.0000,0.0000,0.0000,0.0000,0
2026-04-17,12:54:20,93,1,-7.9840,-2.5467,0.0912,2.6828,2.6978,0,1.0000,-998,1,7.7084,-7.4032,-64.5010,19.9844,141.7249,0.144,0.000,1.000,0.0000,0.0000,0.0000,0.0000,0.0000,0.0000,0
2026-04-17,12:54:20,94,1,-7.9840,-2.2643,0.1460,4.2931,2.7126,0,1.0000,-998,1,7.7212,-4.0434,-63.8536,19.5264,143.4081,0.120,0.000,1.000,0.0000,0.0000,0.0000,0.0000,0.0000,0.0000,0
2026-04-17,12:54:20,95,1,-7.9840,-2.0936,0.1415,4.1618,2.7270,0,1.0000,-998,1,7.6791,-1.7270,-63.4591,16.9212,138.0984,0.096,0.000,1.000,0.0000,0.0000,0.0000,0.0000,0.0000,0.0000,0
2026-04-17,12:54:20,97,1,-7.9840,-2.2546,0.1140,3.3530,2.7459,0,1.0000,-998,1,8.6128,14.6291,-62.2568,22.1026,127.3924,0.064,0.000,1.000,0.0000,0.0000,0.0000,0.0000,0.0000,0.0000,0
2026-04-17,12:54:20,98,1,-7.9840,-2.5389,0.1150,3.3813,2.7627,0,1.0000,-998,1,7.8752,-8.3038,-61.4385,22.5127,129.7207,0.040,0.000,1.000,0.0000,0.0000,0.0000,0.0000,0.0000,0.0000,0
2026-04-17,12:54:20,98,1,-7.9840,-2.7316,0.1111,3.2682,2.7813,0,1.0000,-998,1,6.7790,-21.4094,-62.2242,7.4593,131.6201,0.040,0.000,1.000,0.0000,0.0000,0.0000,0.0000,0.0000,0.0000,0
2026-04-17,12:54:20,99,1,-7.9840,-3.0356,0.1252,3.6810,2.8072,0,1.0000,-998,1,6.9477,-2.8998,-63.1099,-3.7852,134.5912,0.104,0.000,1.000,0.0000,0.0000,0.0000,0.0000,0.0000,0.0000,0
2026-04-17,12:54:20,99,1,-7.9840,-3.0515,0.1234,3.6297,2.8289,0,1.0000,-998,1,7.0570,0.2344,-63.3674,-5.1321,136.9379,0.128,0.000,1.000,0.0000,0.0000,0.0000,0.0000,0.0000,0.0000,0
2026-04-17,12:54:20,100,1,-7.9840,-3.2554,0.1092,3.2116,2.8522,0,1.0000,-998,1,6.8870,-2.9913,-63.8255,-7.4935,139.0735,0.104,0.000,1.000,0.0000,0.0000,0.0000,0.0000,0.0000,0.0000,0
2026-04-17,12:54:20,101,1,-7.9840,-3.5859,0.1041,3.0625,2.8832,0,1.0000,-998,1,7.1859,3.2466,-63.6307,-2.5134,141.5302,0.072,0.000,1.000,0.0000,0.0000,0.0000,0.0000,0.0000,0.0000,0
2026-04-17,12:54:20,102,1,-7.9840,-3.7466,0.0947,2.7854,2.9107,0,1.0000,-998,1,7.2438,2.5526,-63.4264,-0.1153,143.3217,0.048,0.000,1.000,0.0000,0.0000,0.0000,0.0000,0.0000,0.0000,0
2026-04-17,12:54:20,102,1,-7.9840,-3.5783,0.1185,3.4843,2.9377,0,1.0000,-998,1,7.3198,2.5584,-63.2826,1.6297,145.0586,0.024,0.000,1.000,0.0000,0.0000,0.0000,0.0000,0.0000,0.0000,0
2026-04-17,12:54:20,103,1,-7.9840,-3.6068,0.1093,3.2146,2.9630,0,1.0000,-998,1,7.4465,3.2891,-62.5102,8.7072,146.6649,0.000,0.000,1.000,0.0000,0.0000,0.0000,0.0000,0.0000,0.0000,0
2026-04-17,12:54:20,104,1,-7.9840,-3.6793,0.0939,2.7620,2.9975,0,1.0000,-998,1,7.5278,3.0010,-61.0972,17.9303,148.5030,0.000,0.000,1.000,0.0000,0.0000,0.0000,0.0000,0.0000,0.0000,0
2026-04-17,12:54:20,104,1,-7.9840,-3.6224,0.1294,3.8066,3.0314,0,1.0000,-998,1,7.4808,-0.2494,-61.5356,5.8731,150.2039,0.000,0.000,1.000,0.0000,0.0000,0.0000,0.0000,0.0000,0.0000,0
2026-04-17,12:54:20,106,1,-7.9840,-3.5860,0.1146,3.3719,3.0583,0,1.0000,-998,1,7.2148,-4.0147,-62.3767,-3.8582,151.5414,0.000,0.000,1.000,0.0000,0.0000,0.0000,0.0000,0.0000,0.0000,0
2026-04-17,12:54:20,107,1,-7.9840,-3.8144,0.1102,3.2404,3.0849,0,1.0000,-998,1,7.2653,-1.4520,-62.7887,-6.4549,152.6086,0.000,0.000,1.000,0.0000,0.0000,0.0000,0.0000,0.0000,0.0000,0
2026-04-17,12:54:20,108,1,-7.9840,-3.5861,0.0980,2.8810,3.1206,0,1.0000,-998,1,6.9008,-5.9236,-63.6185,-11.7066,153.8820,0.000,0.000,1.000,0.0000,0.0000,0.0000,0.0000,0.0000,0.0000,0
2026-04-17,12:54:20,109,1,-7.9840,-3.6811,0.1139,3.3497,3.1471,0,1.0000,-998,1,6.9432,-1.7236,-63.8996,-10.6628,154.8860,0.000,0.000,1.000,0.0000,0.0000,0.0000,0.0000,0.0000,0.0000,0
2026-04-17,12:54:20,109,1,-7.9840,-3.3687,0.0970,2.8521,3.9678,0,1.0000,-998,1,6.2986,-0.7023,-75.2481,-21.0969,169.0407,0.000,0.000,1.000,0.0000,0.0000,0.0000,0.0000,0.0000,0.0000,0
2026-04-17,12:54:20,140,1,-7.9840,-3.2890,0.1142,3.3590,3.9991,0,1.0000,-998,1,6.3460,-3.4026,-76.2032,-27.4350,169.1415,0.000,0.000,1.000,0.0000,0.0000,0.0000,0.0000,0.0000,0.0000,0
2026-04-17,12:54:20,141,1,-7.9840,-3.2261,0.1097,3.2270,4.0252,0,1.0000,-998,1,6.2922,-2.4918,-77.9075,-36.7187,169.4201,0.000,0.000,1.000,0.0000,0.0000,0.0000,0.0000,0.0000,0.0000,0
2026-04-17,12:54:20,142,1,-7.9840,-3.3539,0.1111,3.2668,4.0449,0,1.0000,-998,1,6.3453,-2.1724,-76.4333,-9.5428,169.5638,0.000,0.000,1.000,0.0000,0.0000,0.0000,0.0000,0.0000,0.0000,0
2026-04-17,12:54:20,177,1,-7.9840,-3.6634,0.1083,3.1851,4.0784,0,1.0000,-998,1,6.2478,-9.8086,-71.7772,108.4475,169.5977,0.000,0.000,1.000,0.0000,0.0000,0.0000,0.0000,0.0000,0.0000,0
2026-04-17,12:54:20,213,1,-7.9840,-3.8342,0.1019,2.9978,4.1072,0,1.0000,-998,1,5.6271,-15.1791,-67.3782,124.8044,169.6913,0.064,0.000,1.000,0.0000,0.0000,0.0000,0.0000,0.0000,0.0000,0
2026-04-17,12:54:20,249,1,-7.9840,-3.8592,0.1084,3.1886,4.1359,0,1.0000,-998,1,5.6786,4.0060,-65.8481,70.7711,169.9998,0.128,0.000,1.000,0.0000,0.0000,0.0000,0.0000,0.0000,0.0000,0
2026-04-17,12:54:20,284,1,-7.9840,-3.6589,0.1150,3.3823,4.1634,0,1.0000,-998,1,6.1587,12.2348,-65.9655,27.3288,170.2282,0.096,0.000,1.000,0.0000,0.0000,0.0000,0.0000,0.0000,0.0000,0
2026-04-17,12:54:20,320,1,-7.9840,-3.4617,0.1187,3.4924,4.1898,0,1.0000,-998,1,6.7827,18.0029,-65.8130,19.7790,170.5310,0.064,0.000,1.000,0.0000,0.0000,0.0000,0.0000,0.0000,0.0000,0
2026-04-17,12:54:20,355,1,-7.9840,-3.5569,0.1035,3.0440,4.2159,0,1.0000,-998,1,6.2152,-19.2661,-64.8402,26.0311,170.6836,0.032,0.000,1.000,0.0000,0.0000,0.0000,0.0000,0.0000,0.0000,0
2026-04-17,12:54:20,390,1,-7.9840,-3.7375,0.0812,2.3875,4.2434,0,1.0000,-998,1,5.2742,-29.5742,-62.3473,56.9398,170.6185,0.072,0.000,1.000,0.0000,0.0000,0.0000,0.0000,0.0000,0.0000,0
2026-04-17,12:54:20,426,1,-7.9840,-3.1256,0.1372,4.0351,4.2682,0,1.0000,-998,1,5.7550,11.5282,-62.1783,8.8062,170.3116,0.112,0.000,1.000,0.0000,0.0000,0.0000,0.0000,0.0000,0.0000,0
2026-04-17,12:54:20,462,1,-7.9840,-3.0717,0.1220,3.5869,4.2927,0,1.0000,-998,1,5.4376,-21.1639,-67.7517,-120.6139,170.8793,0.080,0.000,1.000,0.0000,0.0000,0.0000,0.0000,0.0000,0.0000,0
2026-04-17,12:54:20,498,1,-7.9840,-3.4986,0.1106,3.2543,4.3178,0,1.0000,-998,1,5.2103,-17.9022,-73.2720,-141.8278,170.8360,0.120,0.000,1.000,0.0000,0.0000,0.0000,0.0000,0.0000,0.0000,0
2026-04-17,12:54:20,534,1,-7.9840,-3.5504,0.1025,3.0151,4.3446,0,1.0000,-998,1,4.7400,-19.0513,-75.7946,-96.9061,170.4269,0.184,0.000,0.998,0.0000,0.0000,0.0000,0.0000,0.0000,0.0000,0
2026-04-17,12:54:20,569,1,-7.9840,-3.2372,0.0770,2.2653,4.3688,0,1.0000,-998,1,4.2926,-7.2716,-77.1678,-66.7536,170.4012,0.248,0.000,0.995,0.0000,0.0000,0.0000,0.0000,0.0000,0.0000,0
2026-04-17,12:54:20,604,1,-7.9840,-2.8568,0.1115,3.2788,4.3912,0,1.0000,-998,1,5.2831,37.7334,-75.4381,14.2712,170.2198,0.264,0.000,1.000,0.0000,0.0000,0.0000,0.0000,0.0000,0.0000,0
2026-04-17,12:54:20,640,1,-7.9840,-3.0271,0.1122,3.2993,4.4144,0,1.0000,-998,1,6.3089,19.4914,-70.2689,118.2462,171.0692,0.232,0.000,1.000,0.0000,0.0000,0.0000,0.0000,0.0000,0.0000,0
2026-04-17,12:54:20,676,1,-7.9840,-3.2063,0.0873,2.5679,4.4377,0,1.0000,-998,1,5.7623,-20.7627,-64.3249,163.3089,171.3623,0.200,0.000,1.000,0.0000,0.0000,0.0000,0.0000,0.0000,0.0000,0
2026-04-17,12:54:20,712,1,-7.9840,-3.0936,0.0945,2.7783,4.4609,0,1.0000,-998,1,5.1415,-19.3601,-62.8827,74.6394,170.8850,0.192,0.000,1.000,0.0000,0.0000,0.0000,0.0000,0.0000,0.0000,0
2026-04-17,12:54:20,747,1,-7.9840,-3.2431,0.0866,2.5474,4.4851,0,1.0000,-998,1,4.8306,-6.6301,-70.2560,-138.0053,170.8953,0.256,0.000,0.997,0.0000,0.0000,0.0000,0.0000,0.0000,0.0000,0
2026-04-17,12:54:20,783,1,-7.9840,-3.1246,0.0905,2.6609,4.5099,0,1.0000,-998,1,5.2645,15.7490,-78.3418,-207.4753,170.9099,0.272,0.000,1.000,0.0000,0.0000,0.0000,0.0000,0.0000,0.0000,0
2026-04-17,12:54:20,818,1,-7.9840,-3.1789,0.1009,2.9664,4.5342,0,1.0000,-998,1,5.4650,10.9630,-85.6459,-226.9787,171.2548,0.240,0.000,1.000,0.0000,0.0000,0.0000,0.0000,0.0000,0.0000,0
2026-04-17,12:54:20,859,1,-7.9840,-3.3358,0.0871,2.5618,4.5617,0,1.0000,-998,1,5.2905,-3.1065,-88.2521,-173.8600,171.1346,0.216,0.000,1.000,0.0000,0.0000,0.0000,0.0000,0.0000,0.0000,0
2026-04-17,12:54:20,894,1,-7.9840,-3.1703,0.0868,2.5527,4.5855,0,1.0000,-998,1,5.3134,4.4514,-90.8220,-113.9299,171.2290,0.184,0.000,1.000,0.0000,0.0000,0.0000,0.0000,0.0000,0.0000,0
2026-04-17,12:54:20,930,1,-7.9840,-3.1666,0.0926,2.7250,4.6107,0,1.0000,-998,1,5.2345,-1.7069,-87.2212,45.7001,171.2659,0.152,0.000,1.000,0.0000,0.0000,0.0000,0.0000,0.0000,0.0000,0
2026-04-17,12:54:20,965,1,-7.9840,-2.9894,0.1037,3.0512,4.6340,0,1.0000,-998,1,4.8506,-8.7105,-82.9543,95.9067,171.1704,0.144,0.000,0.998,0.0000,0.0000,0.0000,0.0000,0.0000,0.0000,0
2026-04-17,12:54:20,1000,1,-7.9840,-3.3565,0.1256,3.6943,4.6574,0,1.0000,-998,1,5.6650,27.8199,-82.5776,39.9847,171.3602,0.112,0.000,1.000,0.0000,0.0000,0.0000,0.0000,0.0000,0.0000,0
2026-04-17,12:54:21,1036,1,-7.9840,-3.3989,0.1131,3.3272,4.6827,0,1.0000,-998,1,5.2434,-17.1087,-81.3187,41.7494,171.5545,0.080,0.000,1.000,0.0000,0.0000,0.0000,0.0000,0.0000,0.0000,0
2026-04-17,12:54:21,1071,1,-7.9840,-3.3539,0.1051,3.0904,4.7078,0,1.0000,-998,1,4.8493,-9.7937,-78.8192,88.2203,171.4752,0.096,0.000,0.998,0.0000,0.0000,0.0000,0.0000,0.0000,0.0000,0
2026-04-17,12:54:21,1106,1,-7.9840,-3.3613,0.1087,3.1979,4.7325,0,1.0000,-998,1,4.5475,-13.0050,-75.1238,87.2457,171.0814,0.160,0.000,0.994,0.0000,0.0000,0.0000,0.0000,0.0000,0.0000,0
2026-04-17,12:54:21,1142,1,-7.9840,-3.4713,0.0936,2.7542,4.7588,0,1.0000,-998,1,3.9017,-15.0590,-75.7286,19.6295,171.2013,0.224,0.000,0.991,0.0000,0.0000,0.0000,0.0000,0.0000,0.0000,0
2026-04-17,12:54:21,1178,1,-7.9840,-3.2580,0.0895,2.6319,4.7838,0,1.0000,-998,1,4.2550,5.3036,-78.0473,-42.5846,170.8538,0.264,0.000,0.988,0.0000,0.0000,0.0000,0.0000,0.0000,0.0000,0
2026-04-17,12:54:21,1213,1,-7.9840,-3.1248,0.1053,3.0957,4.8077,0,1.0000,-998,1,4.8191,22.5104,-77.6647,-4.2933,170.9232,0.232,0.000,0.985,0.0000,0.0000,0.0000,0.0000,0.0000,0.0000,0
2026-04-17,12:54:21,1249,1,-7.9840,-3.0993,0.0826,2.4286,4.8316,0,1.0000,-998,1,4.8905,-2.8593,-78.1838,-13.4907,171.4186,0.200,0.000,0.990,0.0000,0.0000,0.0000,0.0000,0.0000,0.0000,0
2026-04-17,12:54:21,1284,1,-7.9840,-2.9477,0.0783,2.3030,4.8540,0,1.0000,-998,1,4.9486,11.1932,-78.2604,5.4239,171.3906,0.168,0.000,0.987,0.0000,0.0000,0.0000,0.0000,0.0000,0.0000,0
2026-04-17,12:54:21,1319,1,-7.9840,-2.7327,0.0874,2.5692,4.8754,0,1.0000,-998,1,5.2965,1.4138,-70.1396,181.8698,171.3451,0.136,0.000,1.000,0.0000,0.0000,0.0000,0.0000,0.0000,0.0000,0
2026-04-17,12:54:21,1355,1,-7.9760,-2.9288,0.0875,2.5747,4.8978,0,1.0000,-997,1,4.3563,-30.1542,-60.5787,261.1897,171.2733,0.128,0.000,0.998,0.0000,0.0000,0.0000,0.0000,0.0000,0.0000,0
2026-04-17,12:54:21,1390,1,-7.9760,-2.7388,0.0975,2.8675,4.9175,0,1.0000,-997,1,4.7828,10.8900,-59.0410,93.4567,171.0081,0.144,0.000,0.994,0.0000,0.0000,0.0000,0.0000,0.0000,0.0000,0
2026-04-17,12:54:21,1426,1,-7.9840,-2.7840,0.0797,2.3429,4.9386,0,1.0000,-998,1,4.5004,-11.1485,-67.6676,-149.9300,171.3351,0.112,0.000,0.991,0.0000,0.0000,0.0000,0.0000,0.0000,0.0000,0
2026-04-17,12:54:21,1461,1,-7.9840,-2.9019,0.0853,2.5077,4.9604,0,1.0000,-998,1,4.5068,5.8675,-76.9997,-241.6203,170.9641,0.104,0.000,0.988,0.0000,0.0000,0.0000,0.0000,0.0000,0.0000,0
2026-04-17,12:54:21,1496,1,-7.9840,-2.7015,0.0824,2.4234,4.9817,0,1.0000,-998,1,4.6353,6.4524,-86.6100,-277.0737,171.2341,0.072,0.000,0.985,0.0000,0.0000,0.0000,0.0000,0.0000,0.0000,0
2026-04-17,12:54:21,1532,1,-7.9840,-3.0206,0.0833,2.4501,5.0044,0,1.0000,-998,1,4.9630,9.4679,-93.2418,-211.6479,171.2385,0.040,0.000,0.982,0.0000,0.0000,0.0000,0.0000,0.0000,0.0000,0
2026-04-17,12:54:21,1568,1,-7.9840,-2.7816,0.0870,2.5585,5.0273,0,1.0000,-998,1,4.8756,-1.4714,-89.8320,11.0704,171.2783,0.008,0.000,0.978,0.0000,0.0000,0.0000,0.0000,0.0000,0.0000,0
2026-04-17,12:54:21,1603,1,-7.9840,-3.1241,0.0875,2.5723,5.0495,0,1.0000,-998,1,4.9005,-0.1270,-80.9674,191.8899,171.3894,0.000,0.000,0.975,0.0000,0.0000,0.0000,0.0000,0.0000,0.0000,0
2026-04-17,12:54:21,1636,1,-7.9840,-3.1572,0.0849,2.4964,5.0647,0,1.0000,-998,1,4.8618,-0.5874,-78.4863,165.8470,171.4023,0.000,0.000,0.974,0.0000,0.0000,0.0000,0.0000,0.0000,0.0000,0
2026-04-17,12:54:21,1672,1,-7.9840,-3.0585,0.0941,2.7666,5.0945,0,1.0000,-998,1,5.0233,6.6242,-74.4220,124.9061,171.4946,0.000,0.000,0.979,0.0000,0.0000,0.0000,0.0000,0.0000,0.0000,0
2026-04-17,12:54:21,1708,1,-7.9840,-3.2653,0.0963,2.8323,5.1198,0,1.0000,-998,1,4.9088,-2.8929,-69.4078,189.6517,171.4928,0.000,0.000,0.985,0.0000,0.0000,0.0000,0.0000,0.0000,0.0000,0
2026-04-17,12:54:21,1745,1,-7.9840,-3.1559,0.1183,3.4785,5.1458,0,1.0000,-998,1,4.8034,3.5975,-62.1688,184.5668,171.3817,0.000,0.000,0.982,0.0000,0.0000,0.0000,0.0000,0.0000,0.0000,0
2026-04-17,12:54:21,1780,1,-7.9840,-3.2658,0.1133,3.3324,5.1697,0,1.0000,-998,1,4.9481,2.6427,-64.9210,3.3455,171.4090,0.000,0.000,0.987,0.0000,0.0000,0.0000,0.0000,0.0000,0.0000,0
2026-04-17,12:54:21,1816,1,-7.9840,-3.3342,0.0973,2.8612,5.1949,0,1.0000,-998,1,4.7810,-8.2946,-67.3754,-47.6368,171.4183,0.000,0.000,0.984,0.0000,0.0000,0.0000,0.0000,0.0000,0.0000,0
2026-04-17,12:54:21,1852,1,-7.9840,-3.4726,0.1007,2.9624,5.2220,0,1.0000,-998,1,4.3597,-13.7628,-69.9751,-67.4565,171.3200,0.032,0.000,0.981,0.0000,0.0000,0.0000,0.0000,0.0000,0.0000,0
2026-04-17,12:54:21,1888,1,-7.9840,-3.1899,0.1228,3.6127,5.2459,0,1.0000,-998,1,4.7176,11.5568,-71.6113,-64.4677,171.2192,0.024,0.000,0.978,0.0000,0.0000,0.0000,0.0000,0.0000,0.0000,0
2026-04-17,12:54:21,1923,1,-7.9840,-3.2415,0.1188,3.4928,5.2702,0,1.0000,-998,1,4.8910,4.1175,-70.3560,11.6200,171.5699,0.000,0.000,0.974,0.0000,0.0000,0.0000,0.0000,0.0000,0.0000,0
2026-04-17,12:54:21,1959,1,-7.9840,-3.4636,0.0926,2.7231,5.2964,0,1.0000,-998,1,4.3454,-19.1840,-68.5536,48.4690,171.3511,0.000,0.000,0.971,0.0000,0.0000,0.0000,0.0000,0.0000,0.0000,0
2026-04-17,12:54:21,1994,1,-7.9840,-3.1922,0.0940,2.7642,5.3207,0,1.0000,-998,1,3.9219,-15.8736,-62.9145,121.9729,171.0328,0.064,0.000,0.968,0.0000,0.0000,0.0000,0.0000,0.0000,0.0000,0
2026-04-17,12:54:21,2029,1,-7.9840,-3.2130,0.0890,2.6173,5.3452,0,1.0000,-998,1,3.5123,-7.3552,-66.5298,-49.1140,171.1765,0.128,0.000,0.965,0.0000,0.0000,0.0000,0.0000,0.0000,0.0000,0
2026-04-17,12:54:22,2065,1,-7.9840,-3.0766,0.0977,2.8730,5.3688,0,1.0000,-998,1,4.2208,16.5003,-70.1988,-87.5394,171.0296,0.120,0.000,0.962,0.0000,0.0000,0.0000,0.0000,0.0000,0.0000,0
2026-04-17,12:54:22,2100,1,-7.9840,-2.9735,0.1052,3.0936,5.3921,0,1.0000,-998,1,4.7098,11.3049,-75.4090,-145.8943,171.2427,0.088,0.000,0.958,0.0000,0.0000,0.0000,0.0000,0.0000,0.0000,0
2026-04-17,12:54:22,2135,1,-7.9840,-2.9614,0.0862,2.5349,5.4135,0,1.0000,-998,1,4.7855,3.6223,-81.6468,-170.4476,171.4167,0.056,0.000,0.955,0.0000,0.0000,0.0000,0.0000,0.0000,0.0000,0
2026-04-17,12:54:22,2171,1,-7.9840,-2.8207,0.1007,2.9632,5.4346,0,1.0000,-998,1,5.1233,6.3848,-84.5350,-123.0891,171.2324,0.024,0.000,0.978,0.0000,0.0000,0.0000,0.0000,0.0000,0.0000,0
2026-04-17,12:54:22,2206,1,-7.9840,-2.8220,0.0838,2.4650,5.4557,0,1.0000,-998,1,4.7252,-13.4591,-87.1079,-93.6640,171.5091,0.000,0.000,0.984,0.0000,0.0000,0.0000,0.0000,0.0000,0.0000,0
2026-04-17,12:54:22,2242,1,-7.9840,-2.7099,0.0897,2.6383,5.4769,0,1.0000,-998,1,4.0359,-18.6734,-90.0015,-94.3647,171.1081,0.048,0.000,0.981,0.0000,0.0000,0.0000,0.0000,0.0000,0.0000,0
2026-04-17,12:54:22,2277,1,-7.9840,-2.8215,0.0832,2.4476,5.4984,0,1.0000,-998,1,4.1286,0.3710,-93.5406,-105.0124,171.4035,0.112,0.000,0.978,0.0000,0.0000,0.0000,0.0000,0.0000,0.0000,0
2026-04-17,12:54:22,2313,1,-7.9840,-2.9545,0.0710,2.0872,5.5209,0,1.0000,-998,1,4.3085,9.2839,-97.7316,-127.0139,171.3137,0.104,0.000,0.974,0.0000,0.0000,0.0000,0.0000,0.0000,0.0000,0
2026-04-17,12:54:22,2349,1,-7.9840,-2.6051,0.0890,2.6188,5.5404,0,1.0000,-998,1,4.7033,6.1847,-101.5302,-121.5386,171.4132,0.072,0.000,0.971,0.0000,0.0000,0.0000,0.0000,0.0000,0.0000,0
2026-04-17,12:54:22,2384,1,-7.9840,-2.4552,0.0799,2.3486,5.5600,0,1.0000,-998,1,4.4278,-11.4979,-101.8918,-37.2860,171.4369,0.040,0.000,0.968,0.0000,0.0000,0.0000,0.0000,0.0000,0.0000,0
2026-04-17,12:54:22,2424,1,-7.9840,-2.6613,0.0795,2.3385,5.5824,0,1.0000,-998,1,4.2936,-7.1184,-101.2228,-15.8404,171.4576,0.016,0.000,0.966,0.0000,0.0000,0.0000,0.0000,0.0000,0.0000,0
2026-04-17,12:54:22,2459,1,-7.9840,-2.4986,0.0948,2.7877,5.6026,0,1.0000,-998,1,4.3867,3.3468,-102.1374,-25.7463,171.6198,0.000,0.000,0.962,0.0000,0.0000,0.0000,0.0000,0.0000,0.0000,0
2026-04-17,12:54:22,2495,1,-7.9840,-2.4295,0.0696,2.0470,5.6206,0,1.0000,-998,1,4.4357,-0.2612,-100.3847,40.5099,171.3743,0.000,0.000,0.959,0.0000,0.0000,0.0000,0.0000,0.0000,0.0000,0
2026-04-17,12:54:22,2530,1,-7.9840,-2.3066,0.0644,1.8935,5.6387,0,1.0000,-998,1,4.0745,-10.4320,-98.4256,45.4784,171.4065,0.000,0.000,0.956,0.0000,0.0000,0.0000,0.0000,0.0000,0.0000,0
2026-04-17,12:54:22,2567,1,-7.9840,-2.3351,0.0861,2.5319,5.6569,0,1.0000,-998,1,4.0649,0.8356,-95.1385,86.2704,171.2552,0.024,0.000,0.953,0.0000,0.0000,0.0000,0.0000,0.0000,0.0000,0
2026-04-17,12:54:22,2602,1,-7.9840,-2.4044,0.0669,1.9682,5.6748,0,1.0000,-998,1,3.9703,-5.4022,-93.3615,71.0066,171.3978,0.000,0.000,0.950,0.0000,0.0000,0.0000,0.0000,0.0000,0.0000,0
2026-04-17,12:54:22,2637,1,-7.9840,-2.3246,0.0876,2.5752,5.6917,0,1.0000,-998,1,4.0010,0.6683,-87.8600,133.9072,171.2559,0.000,0.000,0.946,0.0000,0.0000,0.0000,0.0000,0.0000,0.0000,0
2026-04-17,12:54:22,2673,1,-7.9840,-2.2533,0.0661,1.9432,5.7089,0,1.0000,-998,1,4.0469,1.7890,-86.4159,66.9024,171.3163,0.000,0.000,0.943,0.0000,0.0000,0.0000,0.0000,0.0000,0.0000,0
2026-04-17,12:54:22,2708,1,-7.9840,-1.5767,0.0756,2.2233,5.7238,0,1.0000,-998,1,4.1020,7.4184,-87.2303,8.0221,171.3120,0.000,0.000,0.940,0.0000,0.0000,0.0000,0.0000,0.0000,0.0000,0
2026-04-17,12:54:22,2743,1,-7.9840,-1.9280,0.0709,2.0853,5.7369,0,1.0000,-998,1,4.0180,-9.3967,-91.0879,-80.0295,171.2771,0.000,0.000,0.937,0.0000,0.0000,0.0000,0.0000,0.0000,0.0000,0
2026-04-17,12:54:22,2779,1,-7.9840,-1.6874,0.0956,2.8131,5.7508,0,1.0000,-998,1,3.8927,-3.1446,-92.2627,-51.5218,171.3364,0.000,0.000,0.934,0.0000,0.0000,0.0000,0.0000,0.0000,0.0000,0
2026-04-17,12:54:22,2814,1,-7.9840,-1.5602,0.0615,1.8095,5.7606,0,1.0000,-998,1,4.1886,6.8695,-95.6775,-91.9369,171.1513,0.000,0.000,0.930,0.0000,0.0000,0.0000,0.0000,0.0000,0.0000,0
2026-04-17,12:54:22,2849,1,-7.9840,-1.7092,0.0522,1.5360,5.7733,0,1.0000,-998,1,4.0117,-2.6970,-100.3144,-130.2347,171.3723,0.000,0.000,0.927,0.0000,0.0000,0.0000,0.0000,0.0000,0.0000,0
2026-04-17,12:54:22,2885,1,-7.9840,-1.6101,0.0616,1.8128,5.7870,0,1.0000,-998,1,4.3040,12.0153,-105.6970,-156.6250,171.4004,0.000,0.000,0.924,0.0000,0.0000,0.0000,0.0000,0.0000,0.0000,0
2026-04-17,12:54:22,2920,1,-7.9840,-1.8655,0.0556,1.6356,5.8008,0,1.0000,-998,1,4.2908,-1.0062,-109.9943,-141.2980,171.3160,0.000,0.000,0.921,0.0000,0.0000,0.0000,0.0000,0.0000,0.0000,0
2026-04-17,12:54:22,2956,1,-7.9840,-1.3919,0.0779,2.2905,5.8142,0,1.0000,-998,1,4.3214,9.4345,-112.4161,-92.5466,171.4219,0.000,0.000,0.918,0.0000,0.0000,0.0000,0.0000,0.0000,0.0000,0
2026-04-17,12:54:22,2992,1,-7.9840,-1.6926,0.0775,2.2791,5.8257,0,1.0000,-998,1,3.8654,-22.5713,-110.1223,24.1983,171.3743,0.000,0.000,0.914,0.0000,0.0000,0.0000,0.0000,0.0000,0.0000,0
2026-04-17,12:54:22,3027,1,-7.9840,-1.8902,0.0671,1.9748,5.8383,0,1.0000,-998,1,3.8380,0.5472,-104.4962,125.1368,171.3307,0.048,0.000,0.911,0.0000,0.0000,0.0000,0.0000,0.0000,0.0000,0
2026-04-17,12:54:23,3064,1,-7.9840,-1.8246,0.0687,2.0213,5.8518,0,1.0000,-998,1,4.3230,14.9583,-99.8249,136.4122,171.3313,0.016,0.000,0.908,0.0000,0.0000,0.0000,0.0000,0.0000,0.0000,0
2026-04-17,12:54:23,3099,1,-7.9840,-1.7380,0.0483,1.4214,5.8658,0,1.0000,-998,1,3.9232,-12.1936,-94.2418,164.5246,171.3940,0.000,0.000,0.905,0.0000,0.0000,0.0000,0.0000,0.0000,0.0000,0
2026-04-17,12:54:23,3134,1,-7.9840,-1.3963,0.0633,1.8604,5.8786,0,1.0000,-998,1,4.0978,13.5413,-88.7774,171.6266,171.2767,0.000,0.000,0.902,0.0000,0.0000,0.0000,0.0000,0.0000,0.0000,0
2026-04-17,12:54:23,3171,1,-7.9840,-1.7350,0.0621,1.8261,5.8917,0,1.0000,-998,1,3.9766,-10.7824,-84.4197,146.9000,171.4287,0.000,0.000,0.898,0.0000,0.0000,0.0000,0.0000,0.0000,0.0000,0
2026-04-17,12:54:23,3206,1,-7.9840,-1.9843,0.0573,1.6853,5.9009,0,1.0000,-998,1,4.1453,-4.0714,-83.0500,122.4294,171.4089,0.000,0.000,0.897,0.0000,0.0000,0.0000,0.0000,0.0000,0.0000,0
2026-04-17,12:54:23,3241,1,-7.9840,-1.7579,0.0812,2.3887,5.9170,0,1.0000,-998,1,4.4921,3.0545,-79.6155,109.5561,171.4659,0.000,0.000,0.894,0.0000,0.0000,0.0000,0.0000,0.0000,0.0000,0
2026-04-17,12:54:23,3277,1,-7.9840,-1.8424,0.0632,1.8596,5.9294,0,1.0000,-998,1,3.9129,-16.0035,-75.5794,123.0989,171.5026,0.000,0.000,0.890,0.0000,0.0000,0.0000,0.0000,0.0000,0.0000,0
2026-04-17,12:54:23,3312,1,-7.9840,-1.5756,0.0603,1.7731,5.9415,0,1.0000,-998,1,4.2341,11.7386,-74.4858,52.4325,171.3817,0.000,0.000,0.887,0.0000,0.0000,0.0000,0.0000,0.0000,0.0000,0
2026-04-17,12:54:23,3347,1,-7.9840,-1.7055,0.0525,1.5455,5.9550,0,1.0000,-998,1,3.8920,-9.6576,-74.9809,7.9502,171.5618,0.000,0.000,0.884,0.0000,0.0000,0.0000,0.0000,0.0000,0.0000,0
2026-04-17,12:54:23,3383,1,-7.9840,-1.6758,0.0729,2.1437,5.9694,0,1.0000,-998,1,4.1891,10.1359,-76.7089,-38.7306,171.4460,0.000,0.000,0.881,0.0000,0.0000,0.0000,0.0000,0.0000,0.0000,0
2026-04-17,12:54:23,3419,1,-7.9840,-1.9481,0.0640,1.8818,5.9836,0,1.0000,-998,1,3.9267,-10.5742,-81.5706,-115.0097,171.5267,0.000,0.000,0.878,0.0000,0.0000,0.0000,0.0000,0.0000,0.0000,0
2026-04-17,12:54:23,3454,1,-7.9840,-1.9072,0.0787,2.3158,5.9988,0,1.0000,-998,1,4.0555,11.9711,-85.3049,-119.0453,171.3940,0.000,0.000,0.874,0.0000,0.0000,0.0000,0.0000,0.0000,0.0000,0
2026-04-17,12:54:23,3490,1,-7.9840,-2.0805,0.0763,2.2435,6.0142,0,1.0000,-998,1,4.2862,1.6336,-90.2760,-144.2604,171.5100,0.000,0.000,0.871,0.0000,0.0000,0.0000,0.0000,0.0000,0.0000,0
2026-04-17,12:54:23,3525,1,-7.9840,-2.0489,0.0714,2.0998,6.0300,0,1.0000,-998,1,3.6450,-20.8590,-94.0596,-128.5653,171.4482,0.016,0.000,0.868,0.0000,0.0000,0.0000,0.0000,0.0000,0.0000,0
2026-04-17,12:54:23,3561,1,-7.9840,-1.8559,0.0688,2.0228,6.0458,0,1.0000,-998,1,3.5946,4.3361,-94.6054,-49.5220,171.2309,0.080,0.000,0.865,0.0000,0.0000,0.0000,0.0000,0.0000,0.0000,0
2026-04-17,12:54:23,3597,1,-7.9840,-1.9258,0.0564,1.6603,6.0618,0,1.0000,-998,1,3.8845,6.0575,-95.0430,-29.7306,171.5662,0.048,0.000,0.862,0.0000,0.0000,0.0000,0.0000,0.0000,0.0000,0
2026-04-17,12:54:23,3633,1,-7.9840,-1.6331,0.0645,1.8984,6.0759,0,1.0000,-998,1,4.2268,12.6271,-94.9397,-6.6074,171.3964,0.016,0.000,0.858,0.0000,0.0000,0.0000,0.0000,0.0000,0.0000,0
2026-04-17,12:54:23,3668,1,-7.9840,-1.8749,0.0694,2.0407,6.0897,0,1.0000,-998,1,3.6767,-18.1424,-91.9952,66.6208,171.4189,0.000,0.000,0.855,0.0000,0.0000,0.0000,0.0000,0.0000,0.0000,0
2026-04-17,12:54:23,3704,1,-7.9840,-1.6156,0.0744,2.1872,6.1032,0,1.0000,-998,1,3.6797,5.8868,-88.0330,99.1241,171.2587,0.040,0.000,0.852,0.0000,0.0000,0.0000,0.0000,0.0000,0.0000,0
2026-04-17,12:54:23,3739,1,-7.9840,-1.7990,0.0674,1.9816,6.1153,0,1.0000,-998,1,3.9239,1.2988,-83.9275,130.6328,171.4246,0.008,0.000,0.849,0.0000,0.0000,0.0000,0.0000,0.0000,0.0000,0
2026-04-17,12:54:23,3774,1,-7.9840,-1.7444,0.0668,1.9658,6.1284,0,1.0000,-998,1,3.6556,-9.9260,-76.0943,197.8532,171.4139,0.000,0.000,0.846,0.0000,0.0000,0.0000,0.0000,0.0000,0.0000,0
2026-04-17,12:54:23,3810,1,-7.9840,-1.2951,0.0540,1.5884,6.1385,0,1.0000,-998,1,3.9887,-1.4909,-72.8223,130.8179,171.3629,0.000,0.000,0.842,0.0000,0.0000,0.0000,0.0000,0.0000,0.0000,0
2026-04-17,12:54:23,3845,1,-7.9840,-1.5397,0.0568,1.6699,6.1507,0,1.0000,-998,1,3.1965,-18.9915,-71.4689,68.1445,171.5496,0.032,0.000,0.839,0.0000,0.0000,0.0000,0.0000,0.0000,0.0000,0
2026-04-17,12:54:23,3881,1,-7.9840,-1.3863,0.0695,2.0452,6.1625,0,1.0000,-998,1,3.7421,20.8837,-74.1798,-38.9541,171.2955,0.048,0.000,0.836,0.0000,0.0000,0.0000,0.0000,0.0000,0.0000,0
2026-04-17,12:54:23,3917,1,-7.9840,-1.6237,0.0596,1.7517,6.1734,0,1.0000,-998,1,3.6711,-5.2461,-80.2496,-143.6522,171.5587,0.016,0.000,0.833,0.0000,0.0000,0.0000,0.0000,0.0000,0.0000,0
2026-04-17,12:54:23,3953,1,-7.9840,-1.5612,0.0364,1.0716,6.1857,0,1.0000,-998,1,3.3747,-3.9262,-86.7077,-180.9520,171.3437,0.000,0.000,0.830,0.0000,0.0000,0.0000,0.0000,0.0000,0.0000,0
2026-04-17,12:54:23,3991,1,-7.9840,-0.9259,0.0596,1.7524,6.1950,0,1.0000,-998,1,3.4053,-2.0015,-88.6122,-139.1911,171.3044,0.000,0.000,0.827,0.0000,0.0000,0.0000,0.0000,0.0000,0.0000,0
2026-04-17,12:54:23,4027,1,-7.9840,-1.0151,0.0362,1.0636,6.2031,0,1.0000,-998,1,2.5383,-31.3197,-93.9617,-160.8695,171.0922,0.032,0.000,0.824,0.0000,0.0000,0.0000,0.0000,0.0000,0.0000,0
2026-04-17,12:54:24,4063,1,-6.3120,-0.7511,0.0298,0.8770,6.2101,0,1.0000,-789,1,1.7973,-19.4345,-97.0126,-114.1588,170.8319,0.096,0.000,0.821,0.0000,0.0000,0.0000,0.0000,0.0000,0.0000,0
2026-04-17,12:54:24,4099,1,-3.4000,-0.1735,0.0227,0.6668,6.2140,0,1.0000,-425,1,2.0601,7.2530,-100.0044,-101.2365,170.7242,0.112,0.000,0.818,0.0000,0.0000,0.0000,0.0000,0.0000,0.0000,0
2026-04-17,12:54:24,4134,1,-3.4000,-0.0375,0.0188,0.5537,6.2155,0,1.0000,-425,1,2.6310,18.0967,-103.6472,-112.6109,171.3302,0.080,0.000,0.814,0.0000,0.0000,0.0000,0.0000,0.0000,0.0000,0
2026-04-17,12:54:24,4170,1,-3.4000,0.0393,0.0116,0.3404,6.2156,0,1.0000,-425,1,4.0368,38.2682,-107.6462,-121.7882,172.1024,0.048,0.000,0.811,0.0000,0.0000,0.0000,0.0000,0.0000,0.0000,0
2026-04-17,12:54:24,4206,1,0.0000,-0.0087,0.0108,0.3179,6.2155,0,1.0000,0,1,5.5552,45.4847,-112.0454,-132.7300,172.4681,0.016,0.000,0.826,0.0000,0.0000,0.0000,0.0000,0.0000,0.0000,0
2026-04-17,12:54:24,4242,1,0.0000,0.0241,0.0071,0.2074,6.2154,0,1.0000,0,1,7.6193,76.4295,-116.2369,-134.1798,172.4072,0.000,0.000,0.822,0.0000,0.0000,0.0000,0.0000,0.0000,0.0000,0
2026-04-17,12:54:24,4277,1,0.0000,0.0058,0.0058,0.1692,6.2153,0,1.0000,0,1,6.2505,-23.8459,-121.0039,-143.9005,172.3595,0.000,0.000,0.819,0.0000,0.0000,0.0000,0.0000,0.0000,0.0000,0
2026-04-17,12:54:24,4313,1,1.1120,0.4801,0.0610,1.7928,6.2146,0,1.0000,139,1,4.4438,-63.2963,-125.3102,-139.3378,172.0309,0.016,0.000,0.816,0.0000,0.0000,0.0000,0.0000,0.0000,0.0000,0
2026-04-17,12:54:24,4348,1,1.1120,1.0337,0.0247,0.7266,6.2058,0,1.0000,139,1,3.5173,-36.4841,-129.2677,-129.7190,171.5669,0.000,0.000,0.813,0.0000,0.0000,0.0000,0.0000,0.0000,0.0000,0
2026-04-17,12:54:24,4383,1,1.1120,1.2483,0.0062,0.1835,6.1970,0,1.0000,139,1,2.7305,-24.8636,-133.0554,-124.1832,171.3786,0.000,0.000,0.810,0.0000,0.0000,0.0000,0.0000,0.0000,0.0000,0
2026-04-17,12:54:24,4419,1,3.5520,3.6385,0.0587,1.7252,6.1817,0,1.0000,444,1,2.3668,-10.0354,-136.6192,-115.9978,171.5573,0.032,0.000,0.806,0.0000,0.0000,0.0000,0.0000,0.0000,0.0000,0
2026-04-17,12:54:24,4454,1,3.5520,3.6579,0.0226,0.6637,6.1528,0,1.0000,444,1,1.6073,-23.6519,-139.4569,-98.1602,171.7104,0.024,0.000,0.803,0.0000,0.0000,0.0000,0.0000,0.0000,0.0000,0
2026-04-17,12:54:24,4489,1,3.5520,3.5464,0.0285,0.8389,6.1264,0,1.0000,444,1,1.1025,-14.1340,-129.2922,226.3836,171.6950,0.040,0.000,0.800,0.0000,0.0000,0.0000,0.0000,0.0000,0.0000,0
2026-04-17,12:54:24,4525,1,4.0240,4.0130,0.0404,1.1887,6.0981,0,1.0000,503,1,0.9810,-8.4817,-115.9964,326.9390,171.7282,0.080,0.000,0.797,0.0000,0.0000,0.0000,0.0000,0.0000,0.0000,0
2026-04-17,12:54:24,4560,1,4.0240,4.0366,0.0458,1.3470,6.0686,0,1.0000,503,1,-0.4954,-47.5297,-111.0495,210.8602,171.8791,0.144,0.000,0.794,0.0000,0.0000,0.0000,0.0000,0.0000,0.0000,0
2026-04-17,12:54:24,4595,1,4.0240,4.0538,0.0510,1.4996,6.0386,0,1.0000,503,1,-3.1057,-71.2613,-107.9463,138.9214,171.6839,0.208,0.000,0.790,0.0000,0.0000,0.0000,0.0000,0.0000,0.0000,0
2026-04-17,12:54:24,4631,1,4.0960,4.1752,0.0417,1.2270,6.0072,0,1.0000,512,1,-3.9740,-10.1607,-106.6973,64.4682,171.5500,0.272,0.000,0.787,0.0000,0.0000,0.0000,0.0000,0.0000,0.0000,0
2026-04-17,12:54:24,4666,1,4.0960,4.1880,0.0379,1.1145,5.9762,0,1.0000,512,1,-2.1456,55.7526,-107.9053,-2.0950,171.6046,0.312,0.000,0.784,0.0000,0.0000,0.0000,0.0000,0.0000,0.0000,0
2026-04-17,12:54:24,4701,1,4.0880,4.1625,0.0390,1.1460,5.9455,0,1.0000,511,1,0.6690,76.4507,-108.8044,-15.6353,171.5910,0.280,0.000,0.781,0.0000,0.0000,0.0000,0.0000,0.0000,0.0000,0
2026-04-17,12:54:24,4737,1,4.0880,4.1055,0.0489,1.4373,5.9139,0,1.0000,511,1,3.5392,93.5171,-108.0580,19.3291,171.5215,0.248,0.000,0.778,0.0000,0.0000,0.0000,0.0000,0.0000,0.0000,0
2026-04-17,12:54:24,4778,1,4.0880,4.0983,0.0424,1.2482,5.8778,0,1.0000,511,1,1.7202,-7.6916,-105.4312,46.9783,171.7017,0.224,0.000,0.775,0.0000,0.0000,0.0000,0.0000,0.0000,0.0000,0
2026-04-17,12:54:24,4814,1,4.0880,4.0875,0.0406,1.1939,5.8468,0,1.0000,511,1,0.5755,-23.8745,-106.8298,-21.4173,171.6545,0.192,0.000,0.772,0.0000,0.0000,0.0000,0.0000,0.0000,0.0000,0
2026-04-17,12:54:24,4849,1,4.0880,4.0566,0.0455,1.3396,5.8163,0,1.0000,511,1,-0.0056,-12.4995,-106.9857,15.3864,171.6686,0.160,0.000,0.769,0.0000,0.0000,0.0000,0.0000,0.0000,0.0000,0
2026-04-17,12:54:24,4885,1,4.0880,4.0593,0.0443,1.3024,5.7849,0,1.0000,511,1,0.0257,7.1599,-103.3882,69.7764,171.6416,0.176,0.000,0.766,0.0000,0.0000,0.0000,0.0000,0.0000,0.0000,0
2026-04-17,12:54:24,4921,1,4.0880,4.1182,0.0360,1.0579,5.7532,0,1.0000,511,1,0.6653,21.6489,-101.5892,76.1546,171.7312,0.144,0.000,0.762,0.0000,0.0000,0.0000,0.0000,0.0000,0.0000,0
2026-04-17,12:54:24,4956,1,4.0880,4.1002,0.0366,1.0772,5.7227,0,1.0000,511,1,1.2313,17.4202,-89.9618,271.3400,171.7613,0.112,0.000,0.759,0.0000,0.0000,0.0000,0.0000,0.0000,0.0000,0
2026-04-17,12:54:24,4992,1,4.0880,4.0562,0.0402,1.1811,5.6915,0,1.0000,511,1,1.2772,2.3407,-81.6223,273.1351,171.6575,0.080,0.000,0.756,0.0000,0.0000,0.0000,0.0000,0.0000,0.0000,0
2026-04-17,12:54:24,5028,1,4.0880,4.0824,0.0488,1.4342,5.6594,0,1.0000,511,1,0.8901,-9.3298,-69.9232,328.4162,171.6665,0.048,0.000,0.753,0.0000,0.0000,0.0000,0.0000,0.0000,0.0000,0
2026-04-17,12:54:25,5063,1,4.0880,4.1392,0.0435,1.2806,5.6292,0,1.0000,511,1,0.6395,-7.9261,-64.7559,216.3400,171.7047,0.016,0.000,0.750,0.0000,0.0000,0.0000,0.0000,0.0000,0.0000,0
2026-04-17,12:54:25,5099,1,4.0880,4.0571,0.0491,1.4434,5.5986,0,1.0000,511,1,0.6892,1.6437,-65.2464,55.0489,171.7404,0.000,0.000,0.746,0.0000,0.0000,0.0000,0.0000,0.0000,0.0000,0
2026-04-17,12:54:25,5134,1,7.6240,4.3840,0.0620,1.8223,5.5665,0,1.0000,953,1,0.8497,1.1500,-70.2588,-89.7742,171.7730,0.000,0.000,0.743,0.0000,0.0000,0.0000,0.0000,0.0000,0.0000,0
2026-04-17,12:54:25,5170,1,7.9760,8.0019,0.1198,3.5231,5.5170,0,1.0000,997,1,0.5118,-17.5434,-77.7028,-187.3240,171.9224,0.000,0.000,0.740,0.0000,0.0000,0.0000,0.0000,0.0000,0.0000,0
2026-04-17,12:54:25,5206,1,7.9920,8.0990,0.1009,2.9670,5.4549,0,1.0000,999,1,-3.3393,-99.8425,-83.2261,-162.8968,172.1495,0.064,0.000,0.737,0.0000,0.0000,0.0000,0.0000,0.0000,0.0000,0
2026-04-17,12:54:25,5242,1,7.9920,8.1513,0.0660,1.9407,5.3922,0,1.0000,999,1,-5.0670,-30.8400,-82.0185,-23.9850,172.3290,0.128,0.000,0.734,0.0000,0.0000,0.0000,0.0000,0.0000,0.0000,0
2026-04-17,12:54:25,5277,1,7.9920,7.9216,0.0812,2.3868,5.3326,0,1.0000,999,1,-2.0343,99.0980,-78.2354,67.4977,172.0799,0.168,0.000,0.730,0.0000,0.0000,0.0000,0.0000,0.0000,0.0000,0
2026-04-17,12:54:25,5313,1,7.9920,7.7684,0.1275,3.7502,5.2726,0,1.0000,999,1,1.8249,96.9072,-74.1122,113.8106,171.8854,0.136,0.000,0.727,0.0000,0.0000,0.0000,0.0000,0.0000,0.0000,0
2026-04-17,12:54:25,5349,1,7.9920,8.0049,0.1278,3.7577,5.2118,0,1.0000,999,1,0.7379,-31.9870,-69.7121,130.9494,172.2179,0.104,0.000,0.724,0.0000,0.0000,0.0000,0.0000,0.0000,0.0000,0
2026-04-17,12:54:25,5384,1,7.9920,7.9651,0.1167,3.4326,5.1523,0,1.0000,999,1,-1.4180,-37.3993,-64.9566,147.6238,172.1224,0.096,0.000,0.721,0.0000,0.0000,0.0000,0.0000,0.0000,0.0000,0
2026-04-17,12:54:25,5419,1,7.9920,8.0429,0.1033,3.0379,5.0913,0,1.0000,999,1,-0.1606,53.0233,-59.4497,168.8220,172.0204,0.112,0.000,0.718,0.0000,0.0000,0.0000,0.0000,0.0000,0.0000,0
2026-04-17,12:54:25,5455,1,7.9920,7.9893,0.1055,3.1021,5.0305,0,1.0000,999,1,3.1012,92.4800,-53.6292,173.5352,171.5869,0.080,0.000,0.714,0.0000,0.0000,0.0000,0.0000,0.0000,0.0000,0
2026-04-17,12:54:25,5491,1,7.9920,7.9981,0.1081,3.1806,4.9691,0,1.0000,999,1,4.0967,18.2061,-49.4663,142.7429,171.1667,0.048,0.000,0.711,0.0000,0.0000,0.0000,0.0000,0.0000,0.0000,0
2026-04-17,12:54:25,5527,1,7.9920,8.1151,0.0953,2.8028,4.9088,0,1.0000,999,1,2.1294,-54.0102,-47.2842,93.8774,170.9550,0.016,0.000,0.708,0.0000,0.0000,0.0000,0.0000,0.0000,0.0000,0
2026-04-17,12:54:25,5568,1,7.9920,7.9702,0.1042,3.0658,4.8370,0,1.0000,999,1,0.9422,-20.3730,-46.3718,81.2822,170.9438,0.040,0.000,0.706,0.0000,0.0000,0.0000,0.0000,0.0000,0.0000,0
2026-04-17,12:54:25,5603,1,7.9920,7.9895,0.1084,3.1873,4.7776,0,1.0000,999,1,3.2430,66.1267,-42.4267,107.4071,171.0540,0.032,0.000,0.702,0.0000,0.0000,0.0000,0.0000,0.0000,0.0000,0
2026-04-17,12:54:25,5639,1,7.9920,7.9839,0.1082,3.1811,4.7156,0,1.0000,999,1,5.4278,57.3054,-40.0025,84.6084,170.9228,0.000,0.000,0.717,0.0000,0.0000,0.0000,0.0000,0.0000,0.0000,0
2026-04-17,12:54:25,5675,1,7.9920,7.8596,0.1250,3.6779,4.6551,0,1.0000,999,1,5.8520,16.6059,-38.9796,55.7636,171.3643,0.000,0.000,0.749,0.0000,0.0000,0.0000,0.0000,0.0000,0.0000,0
2026-04-17,12:54:25,5710,1,7.9920,7.8889,0.1535,4.5158,4.5965,0,1.0000,999,1,5.5198,4.1960,-36.3891,76.0901,171.6496,0.000,0.000,0.781,0.0000,0.0000,0.0000,0.0000,0.0000,0.0000,0
2026-04-17,12:54:25,5747,1,7.9920,7.8759,0.1713,5.0375,4.5351,0,1.0000,999,1,7.6894,68.7072,-32.6728,104.2093,152.3698,0.000,0.000,0.813,0.0000,0.0000,0.0000,0.0000,0.0000,0.0000,0
2026-04-17,12:54:25,5782,1,7.9920,8.1111,0.1653,4.8604,4.4748,0,1.0000,999,1,9.6766,46.4089,-29.8731,90.1359,155.4024,0.000,0.000,0.845,0.0000,0.0000,0.0000,0.0000,0.0000,0.0000,0
2026-04-17,12:54:25,5817,1,7.9920,8.1698,0.1399,4.1157,4.4141,0,1.0000,999,1,9.4247,-16.7167,-27.7497,77.0802,157.6414,0.000,0.000,0.877,0.0000,0.0000,0.0000,0.0000,0.0000,0.0000,0
2026-04-17,12:54:25,5853,1,7.9920,7.9984,0.1422,4.1816,4.3517,0,1.0000,999,1,8.3385,-28.7520,-26.1911,59.8889,158.5902,0.000,0.000,0.909,0.0000,0.0000,0.0000,0.0000,0.0000,0.0000,0
2026-04-17,12:54:25,5889,1,1.0400,6.7498,-0.0353,1.0389,4.2931,0,1.0000,130,1,6.9653,-43.8779,-24.9152,44.0299,159.8279,0.016,0.000,0.941,0.0000,0.0000,0.0000,0.0000,0.0000,0.0000,0
2026-04-17,12:54:25,5925,1,-0.1200,0.0703,-0.0322,0.9485,4.2743,0,1.0000,-15,1,6.7368,3.2990,-23.8908,39.8240,161.1446,0.056,0.000,0.964,0.0000,0.0000,0.0000,0.0000,0.0000,0.0000,0
2026-04-17,12:54:25,5962,1,-0.1200,-0.0137,-0.0003,0.0082,4.2759,0,1.0000,-15,1,11.5780,125.3159,-21.8908,49.1925,161.5509,0.024,0.000,0.961,0.0000,0.0000,0.0000,0.0000,0.0000,0.0000,0
2026-04-17,12:54:25,5997,1,-0.1200,-0.0305,0.0000,0.0006,4.2760,0,1.0000,-15,1,17.4979,165.0512,-22.3403,-5.0120,162.7944,0.000,0.000,0.958,0.0000,0.0000,0.0000,0.0000,0.0000,0.0000,0
2026-04-17,12:54:26,6034,1,-0.1280,-0.1503,0.0247,0.7257,4.2772,0,1.0000,-16,1,17.8448,-22.1969,-30.6960,-183.1600,164.3525,0.000,0.000,0.981,0.0000,0.0000,0.0000,0.0000,0.0000,0.0000,0
2026-04-17,12:54:26,6069,1,0.0000,0.0389,0.0094,0.2762,4.2772,0,1.0000,0,1,14.0283,-84.9089,-41.6688,-277.6554,152.2226,0.000,0.000,0.995,0.0000,0.0000,0.0000,0.0000,0.0000,0.0000,0
2026-04-17,12:54:26,6104,1,0.0000,0.0102,0.0099,0.2907,4.2772,0,1.0000,0,1,10.3772,-95.1930,-48.2711,-215.9707,122.1856,0.000,0.000,0.999,0.0000,0.0000,0.0000,0.0000,0.0000,0.0000,0
2026-04-17,12:54:26,6140,1,0.0000,-0.0034,0.0115,0.3377,4.2772,0,1.0000,0,1,8.9868,-28.6713,-48.9340,-79.4330,110.1267,0.000,0.000,1.000,0.0000,0.0000,0.0000,0.0000,0.0000,0.0000,0
2026-04-17,12:54:26,6175,1,0.0000,-0.0203,0.0130,0.3836,4.2773,0,1.0000,0,1,10.4086,41.5196,-45.4236,49.9489,120.0188,0.000,0.000,1.000,0.0000,0.0000,0.0000,0.0000,0.0000,0.0000,0
2026-04-17,12:54:26,6210,1,0.0000,0.0083,0.0144,0.4239,4.2773,0,1.0000,0,1,11.8869,39.6640,-40.3183,120.1287,127.8575,0.000,0.000,1.000,0.0000,0.0000,0.0000,0.0000,0.0000,0.0000,0
2026-04-17,12:54:26,6245,1,0.0000,-0.0046,0.0147,0.4317,4.2773,0,1.0000,0,1,12.6602,24.8290,-35.4426,137.2819,134.5435,0.000,0.000,1.000,0.0000,0.0000,0.0000,0.0000,0.0000,0.0000,0
2026-04-17,12:54:26,6280,1,0.0000,-0.0162,0.0145,0.4264,4.2774,0,1.0000,0,1,12.6401,-0.9121,-31.6572,121.7063,140.6068,0.000,0.000,1.000,0.0000,0.0000,0.0000,0.0000,0.0000,0.0000,0
2026-04-17,12:54:26,6315,1,0.0000,-0.0543,0.0221,0.6487,4.2776,0,1.0000,0,1,10.3691,-68.1862,-29.4000,84.9472,145.7983,0.000,0.000,1.000,0.0000,0.0000,0.0000,0.0000,0.0000,0.0000,0
2026-04-17,12:54:26,6350,1,0.0000,-0.0728,0.0285,0.8370,4.2780,0,1.0000,0,1,4.6693,-125.2756,-29.1683,59.7887,147.6201,0.016,0.000,0.999,0.0000,0.0000,0.0000,0.0000,0.0000,0.0000,0
2026-04-17,12:54:26,6385,1,0.0000,-0.1189,0.0445,1.3100,4.2787,0,1.0000,0,1,5.4614,109.5073,-28.0413,49.3174,151.4550,0.080,0.000,1.000,0.0000,0.0000,0.0000,0.0000,0.0000,0.0000,0
2026-04-17,12:54:26,6420,1,0.0000,-0.0001,0.0463,1.3612,4.2790,0,1.0000,0,1,10.2817,129.5655,-25.7829,63.6894,154.4558,0.048,0.000,1.000,0.0000,0.0000,0.0000,0.0000,0.0000,0.0000,0
2026-04-17,12:54:26,6456,1,0.0000,0.0211,0.0440,1.2929,4.2790,0,1.0000,0,1,13.2946,97.6160,-23.7295,64.0813,157.0377,0.016,0.000,1.000,0.0000,0.0000,0.0000,0.0000,0.0000,0.0000,0
2026-04-17,12:54:26,6491,1,0.0000,0.0135,0.0432,1.2718,4.2789,0,1.0000,0,1,15.9857,90.6476,-21.7560,62.1609,159.0997,0.000,0.000,1.000,0.0000,0.0000,0.0000,0.0000,0.0000,0.0000,0
2026-04-17,12:54:26,6526,1,0.0000,0.0031,0.0424,1.2462,4.2789,0,1.0000,0,1,18.7264,87.3523,-20.1457,54.7029,161.0544,0.000,0.000,1.000,0.0000,0.0000,0.0000,0.0000,0.0000,0.0000,0
2026-04-17,12:54:26,6562,1,0.0000,-0.0060,0.0427,1.2565,4.2788,0,1.0000,0,1,20.7924,65.8513,-18.9713,41.7725,162.9305,0.000,0.000,1.000,0.0000,0.0000,0.0000,0.0000,0.0000,0.0000,0
2026-04-17,12:54:26,6597,1,0.0000,-0.0030,0.0427,1.2561,4.2788,0,1.0000,0,1,22.5702,59.0620,-18.0226,34.9612,164.3283,0.000,0.000,1.000,0.0000,0.0000,0.0000,0.0000,0.0000,0.0000,0
2026-04-17,12:54:26,6633,1,0.0000,-0.0031,0.0420,1.2341,4.2788,0,1.0000,0,1,24.1207,48.2421,-16.9887,33.2839,165.3715,0.000,0.000,1.000,0.0000,0.0000,0.0000,0.0000,0.0000,0.0000,0
2026-04-17,12:54:26,6669,1,0.0000,0.0089,0.0401,1.1800,4.2787,0,1.0000,0,0,25.3490,40.7196,-16.2182,26.6424,166.5117,0.000,0.000,1.000,0.0000,0.0000,0.0000,0.0000,0.0000,0.0000,0
2026-04-17,12:54:26,6704,1,0.0000,0.0124,0.0377,1.1099,4.2787,0,1.0000,0,0,26.5272,37.6835,-15.8935,15.6903,167.4029,0.000,0.000,1.000,0.0000,0.0000,0.0000,0.0000,0.0000,0.0000,0
2026-04-17,12:54:26,6739,1,0.0000,0.0186,0.0381,1.1208,4.2786,0,1.0000,0,0,27.4104,27.8591,-15.6157,11.2320,168.1216,0.000,0.000,1.000,0.0000,0.0000,0.0000,0.0000,0.0000,0.0000,0
2026-04-17,12:54:26,6774,1,0.0000,0.0158,0.0352,1.0367,4.2785,0,1.0000,0,0,28.1484,24.7728,-15.2086,12.7277,168.7548,0.000,0.000,1.000,0.0000,0.0000,0.0000,0.0000,0.0000,0.0000,0
2026-04-17,12:54:26,6809,1,0.0000,0.0045,0.0354,1.0420,4.2784,0,1.0000,0,0,28.8938,24.6546,-14.7342,14.2391,169.2998,0.000,0.000,1.000,0.0000,0.0000,0.0000,0.0000,0.0000,0.0000,0
2026-04-17,12:54:26,6844,1,0.0000,0.0037,0.0339,0.9974,4.2784,0,1.0000,0,0,29.5524,20.9742,-14.4175,11.6008,169.7115,0.000,0.000,1.000,0.0000,0.0000,0.0000,0.0000,0.0000,0.0000,0
2026-04-17,12:54:26,6879,1,0.0000,0.0055,0.0331,0.9740,4.2784,0,1.0000,0,0,30.0657,16.9217,-14.1632,8.9808,170.2692,0.000,0.000,1.000,0.0000,0.0000,0.0000,0.0000,0.0000,0.0000,0
2026-04-17,12:54:26,6914,1,0.0000,0.0002,0.0340,0.9988,4.2784,0,1.0000,0,0,30.4773,12.9024,-13.9299,7.8462,170.9195,0.000,0.000,1.000,0.0000,0.0000,0.0000,0.0000,0.0000,0.0000,0
2026-04-17,12:54:26,6949,1,0.0000,-0.0039,0.0348,1.0228,4.2785,0,1.0000,0,0,30.7387,7.9176,-13.4356,12.0499,171.6471,0.000,0.000,1.000,0.0000,0.0000,0.0000,0.0000,0.0000,0.0000,0
2026-04-17,12:54:26,6985,1,0.0000,0.0004,0.0338,0.9927,4.2785,0,1.0000,0,0,30.9424,6.9586,-13.0683,9.8810,172.0401,0.000,0.000,1.000,0.0000,0.0000,0.0000,0.0000,0.0000,0.0000,0
2026-04-17,12:54:26,7020,1,0.0000,-0.0020,0.0358,1.0516,4.2785,0,1.0000,0,0,31.1449,6.1358,-12.8551,6.5065,172.1488,0.000,0.000,1.000,0.0000,0.0000,0.0000,0.0000,0.0000,0.0000,0
2026-04-17,12:54:27,7055,1,0.0000,0.0078,0.0345,1.0143,4.2785,0,1.0000,0,0,31.3384,6.7156,-12.9593,-0.8628,172.0393,0.000,0.000,1.000,0.0000,0.0000,0.0000,0.0000,0.0000,0.0000,0
2026-04-17,12:54:27,7091,1,0.0000,0.0048,0.0350,1.0299,4.2784,0,1.0000,0,0,31.5985,8.1392,-13.2491,-5.7061,172.0673,0.000,0.000,1.000,0.0000,0.0000,0.0000,0.0000,0.0000,0.0000,0
2026-04-17,12:54:27,7128,1,0.0000,-0.0086,0.0348,1.0229,4.2784,0,1.0000,0,0,31.6678,4.5683,-13.2879,-4.2732,172.0871,0.000,0.000,1.000,0.0000,0.0000,0.0000,0.0000,0.0000,0.0000,0
2026-04-17,12:54:27,7163,1,0.0000,-0.0026,0.0329,0.9678,4.2784,0,1.0000,0,0,31.7966,4.4148,-13.4074,-3.8342,172.1359,0.000,0.000,1.000,0.0000,0.0000,0.0000,0.0000,0.0000,0.0000,0
2026-04-17,12:54:27,7198,1,0.0000,0.0031,0.0322,0.9465,4.2783,0,1.0000,0,0,31.9659,5.8872,-13.5850,-4.9516,172.1369,0.000,0.000,1.000,0.0000,0.0000,0.0000,0.0000,0.0000,0.0000,0
2026-04-17,12:54:27,7233,1,0.0000,-0.0033,0.0324,0.9528,4.2783,0,1.0000,0,0,32.1735,7.0416,-13.7649,-5.5961,172.1659,0.000,0.000,1.000,0.0000,0.0000,0.0000,0.0000,0.0000,0.0000,0
2026-04-17,12:54:27,7268,1,0.0000,-0.0028,0.0318,0.9357,4.2783,0,1.0000,0,0,32.3255,4.3958,-13.7505,-0.7819,172.2207,0.000,0.000,1.000,0.0000,0.0000,0.0000,0.0000,0.0000,0.0000,0
2026-04-17,12:54:27,7303,1,0.0000,-0.0101,0.0332,0.9762,4.2783,0,1.0000,0,0,32.3795,2.1464,-13.4306,5.8595,172.2267,0.000,0.000,1.000,0.0000,0.0000,0.0000,0.0000,0.0000,0.0000,0
2026-04-17,12:54:27,7338,1,0.0000,0.0042,0.0321,0.9447,4.2783,0,1.0000,0,0,32.4575,2.6380,-13.2229,6.2187,172.2145,0.000,0.000,1.000,0.0000,0.0000,0.0000,0.0000,0.0000,0.0000,0
2026-04-17,12:54:27,7373,1,0.0000,0.0035,0.0314,0.9231,4.2783,0,1.0000,0,0,32.5455,2.8412,-13.2728,0.2126,172.2767,0.000,0.000,1.000,0.0000,0.0000,0.0000,0.0000,0.0000,0.0000,0
2026-04-17,12:54:27,7409,1,0.0000,-0.0028,0.0322,0.9483,4.2783,0,1.0000,0,0,32.5880,1.6633,-13.5424,-5.0813,172.2434,0.000,0.000,1.000,0.0000,0.0000,0.0000,0.0000,0.0000,0.0000,0
2026-04-17,12:54:27,7444,1,0.0000,-0.0054,0.0317,0.9312,4.2783,0,1.0000,0,0,32.6374,1.3885,-13.4504,0.1641,172.2881,0.000,0.000,1.000,0.0000,0.0000,0.0000,0.0000,0.0000,0.0000,0
2026-04-17,12:54:27,7479,1,0.0000,-0.0006,0.0314,0.9249,4.2783,0,1.0000,0,0,32.6830,1.2550,-13.3102,3.0982,172.2982,0.000,0.000,0.998,0.0000,0.0000,0.0000,0.0000,0.0000,0.0000,0
2026-04-17,12:54:27,7514,1,0.0000,0.0168,0.0305,0.8971,4.2783,0,1.0000,0,0,32.6958,-0.2612,-13.2862,0.8834,172.2918,0.000,0.000,0.994,0.0000,0.0000,0.0000,0.0000,0.0000,0.0000,0
2026-04-17,12:54:27,7550,1,0.0000,0.0010,0.0300,0.8819,4.2782,0,1.0000,0,0,32.7084,0.7814,-13.3534,-0.7147,172.2770,0.000,0.000,0.991,0.0000,0.0000,0.0000,0.0000,0.0000,0.0000,0
2026-04-17,12:54:27,7586,1,0.0000,0.0014,0.0301,0.8862,4.2782,0,1.0000,0,0,32.7526,1.4030,-13.3504,-0.3945,172.2968,0.000,0.000,0.988,0.0000,0.0000,0.0000,0.0000,0.0000,0.0000,0
2026-04-17,12:54:27,7621,1,0.0000,0.0074,0.0291,0.8560,4.2782,0,1.0000,0,0,32.8007,1.6866,-13.3430,0.1242,172.3249,0.000,0.000,0.985,0.0000,0.0000,0.0000,0.0000,0.0000,0.0000,0
2026-04-17,12:54:27,7656,1,0.0000,0.0055,0.0306,0.8991,4.2782,0,1.0000,0,0,32.7941,-0.5094,-13.3373,-0.1227,172.3097,0.000,0.000,0.982,0.0000,0.0000,0.0000,0.0000,0.0000,0.0000,0
2026-04-17,12:54:27,7692,1,0.0000,0.0050,0.0289,0.8498,4.2782,0,1.0000,0,0,32.8037,0.5385,-13.3469,0.1605,172.2961,0.000,0.000,0.978,0.0000,0.0000,0.0000,0.0000,0.0000,0.0000,0
2026-04-17,12:54:27,7727,1,0.0000,0.0120,0.0282,0.8280,4.2781,0,1.0000,0,0,32.8089,-0.2963,-13.2330,2.2468,172.2997,0.000,0.000,0.975,0.0000,0.0000,0.0000,0.0000,0.0000,0.0000,0
2026-04-17,12:54:27,7762,1,0.0000,0.0060,0.0266,0.7835,4.2781,0,1.0000,0,0,32.7975,-0.3781,-13.1819,1.7636,172.3099,0.000,0.000,0.972,0.0000,0.0000,0.0000,0.0000,0.0000,0.0000,0
2026-04-17,12:54:27,7797,1,0.0000,0.0074,0.0246,0.7225,4.2780,0,1.0000,0,0,32.8290,1.0979,-13.1321,1.4233,172.3087,0.000,0.000,0.969,0.0000,0.0000,0.0000,0.0000,0.0000,0.0000,0
2026-04-17,12:54:27,7833,1,0.0000,0.0155,0.0233,0.6841,4.2779,0,1.0000,0,0,32.8221,-0.3490,-12.9718,4.2835,172.3351,0.000,0.000,0.966,0.0000,0.0000,0.0000,0.0000,0.0000,0.0000,0
2026-04-17,12:54:27,7868,1,0.0000,0.0052,0.0217,0.6380,4.2778,0,1.0000,0,0,32.8567,1.3512,-12.8493,3.3476,172.3439,0.000,0.000,0.962,0.0000,0.0000,0.0000,0.0000,0.0000,0.0000,0
2026-04-17,12:54:27,7904,1,0.0000,0.0204,0.0190,0.5593,4.2777,0,1.0000,0,0,32.8623,0.1865,-12.8955,0.5162,172.3309,0.000,0.000,0.959,0.0000,0.0000,0.0000,0.0000,0.0000,0.0000,0
2026-04-17,12:54:27,7937,1,0.0000,0.0003,0.0205,0.6023,4.2777,0,1.0000,0,0,32.8525,-0.0228,-12.8719,0.5719,172.3394,0.000,0.000,0.958,0.0000,0.0000,0.0000,0.0000,0.0000,0.0000,0
2026-04-17,12:54:27,7973,1,0.0000,0.0078,0.0185,0.5447,4.2776,0,1.0000,0,0,32.8720,0.4257,-12.7439,3.2678,172.3499,0.000,0.000,0.954,0.0000,0.0000,0.0000,0.0000,0.0000,0.0000,0
2026-04-17,12:54:27,8009,1,0.0000,0.0178,0.0175,0.5149,4.2776,0,1.0000,0,0,32.8874,0.6797,-12.4867,6.1045,172.3473,0.000,0.000,0.951,0.0000,0.0000,0.0000,0.0000,0.0000,0.0000,0
2026-04-17,12:54:28,8044,1,0.0000,0.0052,0.0180,0.5284,4.2776,0,1.0000,0,0,32.8881,0.1612,-12.3935,3.8574,172.3288,0.000,0.000,0.948,0.0000,0.0000,0.0000,0.0000,0.0000,0.0000,0
2026-04-17,12:54:28,8079,1,0.0000,0.0125,0.0170,0.5010,4.2775,0,1.0000,0,0,32.8987,0.5818,-12.4584,-0.1272,172.3386,0.000,0.000,0.945,0.0000,0.0000,0.0000,0.0000,0.0000,0.0000,0
2026-04-17,12:54:28,8114,1,0.0000,0.0075,0.0178,0.5248,4.2775,0,1.0000,0,0,32.9034,0.1995,-12.5870,-2.5897,172.3230,0.000,0.000,0.942,0.0000,0.0000,0.0000,0.0000,0.0000,0.0000,0
2026-04-17,12:54:28,8149,1,0.0000,-0.0024,0.0179,0.5265,4.2775,0,1.0000,0,0,32.9396,1.6278,-12.5481,-0.3661,172.3400,0.000,0.000,0.938,0.0000,0.0000,0.0000,0.0000,0.0000,0.0000,0
2026-04-17,12:54:28,8184,1,0.0000,0.0054,0.0169,0.4969,4.2775,0,1.0000,0,0,32.9311,0.0476,-12.6125,-0.8836,172.3567,0.000,0.000,0.935,0.0000,0.0000,0.0000,0.0000,0.0000,0.0000,0
2026-04-17,12:54:28,8219,1,0.0000,0.0024,0.0160,0.4704,4.2775,0,1.0000,0,0,32.9500,0.8588,-12.4126,3.9297,172.3580,0.000,0.000,0.932,0.0000,0.0000,0.0000,0.0000,0.0000,0.0000,0
2026-04-17,12:54:28,8254,1,0.0000,0.0103,0.0169,0.4962,4.2775,0,1.0000,0,0,32.9676,0.7126,-12.2887,3.2340,172.3546,0.000,0.000,0.929,0.0000,0.0000,0.0000,0.0000,0.0000,0.0000,0
2026-04-17,12:54:28,8289,1,0.0000,-0.0034,0.0179,0.5275,4.2775,0,1.0000,0,0,32.9774,0.3711,-12.3335,0.3813,172.3548,0.000,0.000,0.926,0.0000,0.0000,0.0000,0.0000,0.0000,0.0000,0
2026-04-17,12:54:28,8325,1,0.0000,0.0021,0.0163,0.4788,4.2775,0,1.0000,0,0,32.9718,-0.0881,-12.2398,2.4339,172.3555,0.000,0.000,0.922,0.0000,0.0000,0.0000,0.0000,0.0000,0.0000,0
2026-04-17,12:54:28,8360,1,0.0000,0.0036,0.0174,0.5130,4.2775,0,1.0000,0,0,33.0016,1.3914,-12.0256,5.1807,172.3742,0.000,0.000,0.919,0.0000,0.0000,0.0000,0.0000,0.0000,0.0000,0
2026-04-17,12:54:28,8395,1,0.0000,-0.0071,0.0189,0.5558,4.2775,0,1.0000,0,0,32.9835,-0.3725,-11.8030,6.1207,172.4187,0.000,0.000,0.916,0.0000,0.0000,0.0000,0.0000,0.0000,0.0000,0
2026-04-17,12:54:28,8430,1,0.0000,-0.0062,0.0181,0.5315,4.2776,0,1.0000,0,0,32.9718,-0.5346,-11.5679,6.8315,172.5508,0.000,0.000,0.913,0.0000,0.0000,0.0000,0.0000,0.0000,0.0000,0
2026-04-17,12:54:28,8465,1,0.0000,0.0060,0.0190,0.5586,4.2776,0,1.0000,0,0,32.9229,-1.4170,-11.2489,8.6964,172.8361,0.000,0.000,0.910,0.0000,0.0000,0.0000,0.0000,0.0000,0.0000,0
2026-04-17,12:54:28,8500,1,0.0000,-0.0044,0.0192,0.5662,4.2776,0,1.0000,0,0,32.8645,-1.8240,-11.0228,5.8439,173.2138,0.000,0.000,0.906,0.0000,0.0000,0.0000,0.0000,0.0000,0.0000,0
2026-04-17,12:54:28,8535,1,0.0000,0.0116,0.0182,0.5342,4.2776,0,1.0000,0,0,32.7975,-2.1794,-10.9571,2.6210,173.6137,0.000,0.000,0.903,0.0000,0.0000,0.0000,0.0000,0.0000,0.0000,0
2026-04-17,12:54:28,8570,1,0.0000,0.0054,0.0200,0.5872,4.2776,0,1.0000,0,0,32.6970,-3.1864,-10.7110,5.0483,173.9002,0.000,0.000,0.900,0.0000,0.0000,0.0000,0.0000,0.0000,0.0000,0
2026-04-17,12:54:28,8605,1,0.0000,-0.0087,0.0191,0.5631,4.2776,0,1.0000,0,0,32.6344,-1.1591,-10.4821,4.4946,174.1026,0.000,0.000,0.897,0.0000,0.0000,0.0000,0.0000,0.0000,0.0000,0
2026-04-17,12:54:28,8640,1,0.0000,-0.0021,0.0198,0.5811,4.2776,0,1.0000,0,0,32.6124,-0.6417,-10.4518,0.7479,174.2759,0.000,0.000,0.894,0.0000,0.0000,0.0000,0.0000,0.0000,0.0000,0
2026-04-17,12:54:28,8675,1,0.0000,-0.0088,0.0210,0.6171,4.2777,0,1.0000,0,0,32.5662,-1.0267,-10.4922,-2.1512,174.4257,0.000,0.000,0.890,0.0000,0.0000,0.0000,0.0000,0.0000,0.0000,0
2026-04-17,12:54:28,8711,1,0.0000,-0.0055,0.0201,0.5918,4.2777,0,1.0000,0,0,32.5153,-1.2808,-10.5478,-3.0987,174.5959,0.000,0.000,0.887,0.0000,0.0000,0.0000,0.0000,0.0000,0.0000,0
2026-04-17,12:54:28,8749,1,0.0000,-0.0037,0.0219,0.6446,4.2777,0,1.0000,0,0,32.4182,-1.9625,-10.1219,1.3871,174.9429,0.000,0.000,0.885,0.0000,0.0000,0.0000,0.0000,0.0000,0.0000,0
2026-04-17,12:54:28,8784,1,0.0000,0.0053,0.0206,0.6065,4.2777,0,1.0000,0,0,32.4198,0.4444,-10.2932,-4.2343,174.9340,0.000,0.000,0.882,0.0000,0.0000,0.0000,0.0000,0.0000,0.0000,0
2026-04-17,12:54:28,8820,1,0.0000,-0.0039,0.0224,0.6593,4.2777,0,1.0000,0,0,32.4053,-0.1876,-10.3335,-3.5537,174.8572,0.000,0.000,0.878,0.0000,0.0000,0.0000,0.0000,0.0000,0.0000,0
2026-04-17,12:54:28,8855,1,0.0000,0.0105,0.0214,0.6309,4.2777,0,1.0000,0,0,32.4201,0.5069,-10.3539,-2.7353,174.7156,0.000,0.000,0.875,0.0000,0.0000,0.0000,0.0000,0.0000,0.0000,0
2026-04-17,12:54:28,8890,1,0.0000,0.0027,0.0218,0.6419,4.2778,0,1.0000,0,0,32.4304,0.6712,-10.4798,-4.2575,174.4644,0.000,0.000,0.872,0.0000,0.0000,0.0000,0.0000,0.0000,0.0000,0
2026-04-17,12:54:28,8926,1,0.0000,0.0013,0.0218,0.6415,4.2777,0,1.0000,0,0,32.5031,2.7323,-10.6814,-5.9757,174.1443,0.000,0.000,0.869,0.0000,0.0000,0.0000,0.0000,0.0000,0.0000,0
2026-04-17,12:54:28,8961,1,0.0000,-0.0066,0.0227,0.6665,4.2778,0,1.0000,0,0,32.5862,2.4391,-10.9272,-7.3841,173.9002,0.000,0.000,0.866,0.0000,0.0000,0.0000,0.0000,0.0000,0.0000,0
2026-04-17,12:54:28,8996,1,0.0000,0.0044,0.0205,0.6019,4.2777,0,1.0000,0,0,32.6047,0.9086,-11.0812,-5.2979,173.7142,0.000,0.000,0.862,0.0000,0.0000,0.0000,0.0000,0.0000,0.0000,0
2026-04-17,12:54:29,9032,1,0.0000,0.0126,0.0201,0.5918,4.2777,0,1.0000,0,0,32.6976,3.4484,-11.1196,-3.2592,173.5542,0.000,0.000,0.859,0.0000,0.0000,0.0000,0.0000,0.0000,0.0000,0
2026-04-17,12:54:29,9067,1,0.0000,-0.0005,0.0204,0.5991,4.2777,0,1.0000,0,0,32.7789,2.3477,-11.2450,-3.4825,173.4492,0.000,0.000,0.856,0.0000,0.0000,0.0000,0.0000,0.0000,0.0000,0
2026-04-17,12:54:29,9102,1,0.0000,-0.0054,0.0220,0.6478,4.2777,0,1.0000,0,0,32.7594,-0.4314,-11.2390,-0.6059,173.3220,0.000,0.000,0.853,0.0000,0.0000,0.0000,0.0000,0.0000,0.0000,0
2026-04-17,12:54:29,9137,1,0.0000,-0.0007,0.0214,0.6308,4.2777,0,1.0000,0,0,32.8082,2.0786,-11.0904,2.0185,173.2358,0.000,0.000,0.850,0.0000,0.0000,0.0000,0.0000,0.0000,0.0000,0
2026-04-17,12:54:29,9172,1,0.0000,0.0135,0.0198,0.5823,4.2776,0,1.0000,0,0,32.8587,1.1709,-11.2737,-2.6652,173.1445,0.000,0.000,0.846,0.0000,0.0000,0.0000,0.0000,0.0000,0.0000,0
2026-04-17,12:54:29,9207,1,0.0000,0.0109,0.0194,0.5697,4.2776,0,1.0000,0,0,32.8555,-0.4078,-11.3183,-2.0398,173.0492,0.000,0.000,0.843,0.0000,0.0000,0.0000,0.0000,0.0000,0.0000,0
2026-04-17,12:54:29,9243,1,0.0000,-0.0150,0.0201,0.5918,4.2777,0,1.0000,0,0,32.9050,1.7021,-11.3965,-2.2933,172.9782,0.000,0.000,0.840,0.0000,0.0000,0.0000,0.0000,0.0000,0.0000,0
2026-04-17,12:54:29,9278,1,0.0000,0.0091,0.0196,0.5760,4.2776,0,1.0000,0,0,32.8977,-0.0641,-11.3975,-0.4355,172.9014,0.000,0.000,0.837,0.0000,0.0000,0.0000,0.0000,0.0000,0.0000,0
2026-04-17,12:54:29,9313,1,0.0000,-0.0011,0.0198,0.5812,4.2777,0,1.0000,0,0,32.9306,0.7600,-11.2527,2.9950,172.8559,0.000,0.000,0.834,0.0000,0.0000,0.0000,0.0000,0.0000,0.0000,0
2026-04-17,12:54:29,9348,1,0.0000,0.0030,0.0197,0.5780,4.2777,0,1.0000,0,0,32.9368,-0.2111,-11.0215,5.6046,172.8238,0.000,0.000,0.830,0.0000,0.0000,0.0000,0.0000,0.0000,0.0000,0
2026-04-17,12:54:29,9383,1,0.0000,0.0106,0.0188,0.5516,4.2777,0,1.0000,0,0,32.9256,-0.4267,-10.8008,6.2573,172.7737,0.000,0.000,0.827,0.0000,0.0000,0.0000,0.0000,0.0000,0.0000,0
2026-04-17,12:54:29,9418,1,0.0000,0.0018,0.0199,0.5854,4.2777,0,1.0000,0,0,32.9741,1.2700,-10.7887,2.3781,172.7311,0.000,0.000,0.824,0.0000,0.0000,0.0000,0.0000,0.0000,0.0000,0
2026-04-17,12:54:29,9453,1,0.0000,0.0087,0.0210,0.6171,4.2777,0,1.0000,0,0,32.9706,-0.2109,-10.8199,0.3303,172.6558,0.000,0.000,0.821,0.0000,0.0000,0.0000,0.0000,0.0000,0.0000,0
2026-04-17,12:54:29,9488,1,0.0000,0.0047,0.0186,0.5485,4.2777,0,1.0000,0,0,32.9877,0.8546,-10.7140,2.6976,172.6101,0.000,0.000,0.818,0.0000,0.0000,0.0000,0.0000,0.0000,0.0000,0
2026-04-17,12:54:29,9524,1,0.0000,0.0069,0.0212,0.6234,4.2777,0,1.0000,0,0,32.9898,0.5029,-10.7022,2.1937,172.5816,0.000,0.000,0.816,0.0000,0.0000,0.0000,0.0000,0.0000,0.0000,0
2026-04-17,12:54:29,9557,1,0.0000,-0.0004,0.0201,0.5917,4.2776,0,1.0000,0,0,32.9862,-0.3125,-10.6374,2.0972,172.5610,0.000,0.000,0.813,0.0000,0.0000,0.0000,0.0000,0.0000,0.0000,0
2026-04-17,12:54:29,9592,1,0.0000,0.0126,0.0177,0.5208,4.2776,0,1.0000,0,0,33.0193,0.9064,-10.6312,0.3378,172.5294,0.000,0.000,0.810,0.0000,0.0000,0.0000,0.0000,0.0000,0.0000,0
2026-04-17,12:54:29,9627,1,0.0000,0.0001,0.0192,0.5659,4.2776,0,1.0000,0,0,33.0246,0.2660,-10.6077,1.1572,172.5414,0.000,0.000,0.806,0.0000,0.0000,0.0000,0.0000,0.0000,0.0000,0
2026-04-17,12:54:29,9662,1,0.0000,0.0155,0.0183,0.5371,4.2775,0,1.0000,0,0,33.0158,-0.1409,-10.6882,-1.9742,172.5625,0.000,0.000,0.803,0.0000,0.0000,0.0000,0.0000,0.0000,0.0000,0
2026-04-17,12:54:29,9697,1,0.0000,-0.0025,0.0162,0.4778,4.2775,0,1.0000,0,0,32.9811,-0.8248,-10.8295,-3.5317,172.5536,0.000,0.000,0.800,0.0000,0.0000,0.0000,0.0000,0.0000,0.0000,0
2026-04-17,12:54:29,9732,1,0.0000,0.0196,0.0157,0.4606,4.2775,0,1.0000,0,0,32.9935,0.3141,-10.9807,-4.3744,172.5793,0.000,0.000,0.797,0.0000,0.0000,0.0000,0.0000,0.0000,0.0000,0
2026-04-17,12:54:29,9767,1,0.0000,0.0031,0.0163,0.4787,4.2774,0,1.0000,0,0,32.9912,0.1425,-11.1700,-5.3089,172.5903,0.000,0.000,0.794,0.0000,0.0000,0.0000,0.0000,0.0000,0.0000,0
2026-04-17,12:54:29,9802,1,0.0000,0.0065,0.0147,0.4316,4.2774,0,1.0000,0,0,33.0033,0.5182,-11.2540,-3.7316,172.6137,0.000,0.000,0.790,0.0000,0.0000,0.0000,0.0000,0.0000,0.0000,0
2026-04-17,12:54:29,9838,1,0.0000,0.0017,0.0155,0.4550,4.2774,0,1.0000,0,0,33.0165,0.4663,-11.3220,-2.6332,172.6110,0.000,0.000,0.787,0.0000,0.0000,0.0000,0.0000,0.0000,0.0000,0
2026-04-17,12:54:29,9873,1,0.0000,-0.0059,0.0153,0.4498,4.2774,0,1.0000,0,0,33.0039,-0.4936,-11.2123,1.2049,172.5962,0.000,0.000,0.784,0.0000,0.0000,0.0000,0.0000,0.0000,0.0000,0
2026-04-17,12:54:29,9908,1,0.0000,-0.0014,0.0156,0.4577,4.2774,0,1.0000,0,0,33.0071,-0.0820,-11.0653,3.6412,172.6168,0.000,0.000,0.781,0.0000,0.0000,0.0000,0.0000,0.0000,0.0000,0
2026-04-17,12:54:29,9943,1,0.0000,0.0091,0.0143,0.4211,4.2774,0,1.0000,0,0,33.0129,0.1527,-10.7942,6.4400,172.6010,0.000,0.000,0.778,0.0000,0.0000,0.0000,0.0000,0.0000,0.0000,0
2026-04-17,12:54:29,9978,1,0.0000,-0.0008,0.0141,0.4160,4.2774,0,1.0000,0,0,33.0202,0.1314,-10.6056,6.3585,172.6055,0.000,0.000,0.774,0.0000,0.0000,0.0000,0.0000,0.0000,0.0000,0
2026-04-17,12:54:29,10013,1,0.0000,-0.0038,0.0137,0.4032,4.2773,0,1.0000,0,0,33.0262,0.2382,-10.4104,6.3950,172.5986,0.000,0.000,0.771,0.0000,0.0000,0.0000,0.0000,0.0000,0.0000,0
2026-04-17,12:54:30,10049,1,0.0000,-0.0007,0.0120,0.3539,4.2773,0,1.0000,0,0,33.0275,0.2658,-10.2603,4.9141,172.6114,0.000,0.000,0.768,0.0000,0.0000,0.0000,0.0000,0.0000,0.0000,0
2026-04-17,12:54:30,10084,1,0.0000,0.0113,0.0115,0.3379,4.2772,0,1.0000,0,0,33.0448,0.8581,-10.2419,2.4547,172.6219,0.000,0.000,0.765,0.0000,0.0000,0.0000,0.0000,0.0000,0.0000,0
2026-04-17,12:54:30,10119,1,0.0000,0.0030,0.0124,0.3642,4.2772,0,1.0000,0,0,33.0560,0.2221,-10.1974,1.8860,172.6261,0.000,0.000,0.762,0.0000,0.0000,0.0000,0.0000,0.0000,0.0000,0
2026-04-17,12:54:30,10155,1,0.0000,0.0058,0.0117,0.3436,4.2772,0,1.0000,0,0,33.0644,0.4242,-10.0089,4.3488,172.6344,0.000,0.000,0.758,0.0000,0.0000,0.0000,0.0000,0.0000,0.0000,0
2026-04-17,12:54:30,10190,1,0.0000,-0.0019,0.0127,0.3745,4.2772,0,1.0000,0,0,33.0514,-0.2309,-10.0101,1.4231,172.6372,0.000,0.000,0.755,0.0000,0.0000,0.0000,0.0000,0.0000,0.0000,0
2026-04-17,12:54:30,10225,1,0.0000,0.0117,0.0118,0.3459,4.2772,0,1.0000,0,0,33.0622,0.6782,-9.9067,2.1348,172.6567,0.000,0.000,0.752,0.0000,0.0000,0.0000,0.0000,0.0000,0.0000,0
2026-04-17,12:54:30,10261,1,0.0000,-0.0067,0.0119,0.3494,4.2772,0,1.0000,0,0,33.0725,0.0667,-9.9378,0.1094,172.6491,0.000,0.000,0.749,0.0000,0.0000,0.0000,0.0000,0.0000,0.0000,0
2026-04-17,12:54:30,10302,1,0.0000,0.0089,0.0121,0.3562,4.2772,0,1.0000,0,0,33.0558,-0.1373,-9.9257,0.1277,172.6478,0.000,0.000,0.746,0.0000,0.0000,0.0000,0.0000,0.0000,0.0000,0
2026-04-17,12:54:30,10337,1,0.0000,-0.0100,0.0126,0.3701,4.2772,0,1.0000,0,0,33.0526,-0.3927,-9.9183,-0.0131,172.6330,0.000,0.000,0.743,0.0000,0.0000,0.0000,0.0000,0.0000,0.0000,0
2026-04-17,12:54:30,10372,1,0.0000,0.0036,0.0118,0.3459,4.2772,0,1.0000,0,0,33.0399,-0.5596,-10.0519,-3.0907,172.6281,0.000,0.000,0.740,0.0000,0.0000,0.0000,0.0000,0.0000,0.0000,0
2026-04-17,12:54:30,10407,1,0.0000,-0.0059,0.0114,0.3341,4.2772,0,1.0000,0,0,33.0376,0.0514,-10.1621,-3.1025,172.6406,0.000,0.000,0.737,0.0000,0.0000,0.0000,0.0000,0.0000,0.0000,0
2026-04-17,12:54:30,10442,1,0.0000,-0.0085,0.0116,0.3414,4.2772,0,1.0000,0,0,33.4291,14.2644,-10.0218,2.2573,172.6139,0.000,0.000,0.734,0.0000,0.0000,0.0000,0.0000,0.0000,0.0000,0
2026-04-17,12:54:30,10477,1,0.0000,-0.0118,0.0120,0.3517,4.2772,0,1.0000,0,0,34.5686,33.9664,-9.8594,3.4815,172.6286,0.000,0.000,0.730,0.0000,0.0000,0.0000,0.0000,0.0000,0.0000,0
2026-04-17,12:54:30,10512,1,0.0000,0.0111,0.0127,0.3745,4.2772,0,1.0000,0,0,36.7281,60.9305,-9.6748,4.2444,172.5946,0.000,0.000,0.727,0.0000,0.0000,0.0000,0.0000,0.0000,0.0000,0
2026-04-17,12:54:30,10547,1,0.0000,-0.0058,0.0120,0.3517,4.2772,0,1.0000,0,0,39.9980,83.8697,-9.1542,11.1346,172.6815,0.000,0.000,0.724,0.0000,0.0000,0.0000,0.0000,0.0000,0.0000,0
2026-04-17,12:54:30,10582,1,0.0000,-0.0007,0.0127,0.3723,4.2772,0,1.0000,0,0,43.7209,81.9194,-8.3347,18.1478,172.6345,0.000,0.000,0.747,0.0000,0.0000,0.0000,0.0000,0.0000,0.0000,0
2026-04-17,12:54:30,10617,1,0.0000,-0.0006,0.0127,0.3723,4.2772,0,1.0000,0,0,46.7308,50.6158,-7.6910,14.4385,172.4545,0.000,0.000,0.779,0.0000,0.0000,0.0000,0.0000,0.0000,0.0000,0
2026-04-17,12:54:30,10652,1,0.0000,0.0277,0.0088,0.2582,4.2772,0,1.0000,0,0,46.4101,-33.6510,-9.3624,-44.3367,145.9764,0.000,0.000,0.802,0.0000,0.0000,0.0000,0.0000,0.0000,0.0000,0
2026-04-17,12:54:30,10687,1,0.0000,0.0109,0.0105,0.3090,4.2772,0,1.0000,0,0,35.4507,-264.8900,-15.5773,-142.6899,149.5605,0.000,0.000,0.834,0.0000,0.0000,0.0000,0.0000,0.0000,0.0000,0
2026-04-17,12:54:30,10722,1,0.0000,-0.0018,0.0103,0.3031,4.2772,0,1.0000,0,0,30.3681,-168.3039,-20.8961,-153.5731,152.9967,0.000,0.000,0.866,0.0000,0.0000,0.0000,0.0000,0.0000,0.0000,0
2026-04-17,12:54:30,10758,1,0.0000,-0.0234,0.0119,0.3495,4.2772,0,1.0000,0,0,27.5875,-101.5102,-24.2087,-123.0667,155.9226,0.000,0.000,0.898,0.0000,0.0000,0.0000,0.0000,0.0000,0.0000,0
2026-04-17,12:54:30,10793,1,0.0000,-0.0023,0.0113,0.3334,4.2772,0,1.0000,0,0,25.1022,-141.8580,-28.6232,-141.2816,158.3614,0.000,0.000,0.930,0.0000,0.0000,0.0000,0.0000,0.0000,0.0000,0
2026-04-17,12:54:30,10828,1,0.0000,0.0087,0.0110,0.3237,4.2772,0,1.0000,0,0,21.8841,-109.1041,-36.1052,-204.8439,160.2197,0.000,0.000,0.962,0.0000,0.0000,0.0000,0.0000,0.0000,0.0000,0
2026-04-17,12:54:30,10863,1,0.0000,-0.0018,0.0114,0.3356,4.2772,0,1.0000,0,0,18.5767,-94.7153,-43.2327,-219.3650,161.9863,0.000,0.000,0.994,0.0000,0.0000,0.0000,0.0000,0.0000,0.0000,0
2026-04-17,12:54:30,10899,1,0.0000,-0.0051,0.0114,0.3340,4.2772,0,1.0000,0,0,15.8617,-96.2861,-49.9447,-218.8950,163.4815,0.000,0.000,1.000,0.0000,0.0000,0.0000,0.0000,0.0000,0.0000,0
2026-04-17,12:54:30,10934,1,0.0000,0.0068,0.0110,0.3231,4.2772,0,1.0000,0,0,13.4006,-75.0691,-57.3876,-230.1108,164.6823,0.000,0.000,1.000,0.0000,0.0000,0.0000,0.0000,0.0000,0.0000,0
2026-04-17,12:54:30,10970,1,0.0000,0.0038,0.0098,0.2879,4.2772,0,1.0000,0,0,11.2973,-70.0617,-64.4848,-224.7051,165.7653,0.000,0.000,0.999,0.0000,0.0000,0.0000,0.0000,0.0000,0.0000,0
2026-04-17,12:54:30,11005,1,0.0000,-0.0007,0.0118,0.3474,4.2772,0,1.0000,0,0,9.5041,-58.9090,-70.4242,-200.3696,166.6643,0.000,0.000,1.000,0.0000,0.0000,0.0000,0.0000,0.0000,0.0000,0
2026-04-17,12:54:31,11040,1,0.0000,0.0014,0.0120,0.3518,4.2772,0,1.0000,0,0,8.0048,-48.0709,-75.4936,-172.9482,167.4646,0.000,0.000,1.000,0.0000,0.0000,0.0000,0.0000,0.0000,0.0000,0
2026-04-17,12:54:31,11074,1,0.0000,-0.0079,0.0116,0.3422,4.2772,0,1.0000,0,0,7.6583,-31.8789,-76.7364,-143.0999,167.6559,0.000,0.000,1.000,0.0000,0.0000,0.0000,0.0000,0.0000,0.0000,0
2026-04-17,12:54:31,11109,1,0.0000,0.0051,0.0114,0.3356,4.2772,0,1.0000,0,0,6.4654,-31.9712,-81.4304,-147.6238,168.2349,0.000,0.000,1.000,0.0000,0.0000,0.0000,0.0000,0.0000,0.0000,0
2026-04-17,12:54:31,11144,1,0.0000,-0.0093,0.0123,0.3620,4.2772,0,1.0000,0,0,5.2371,-37.9689,-85.0777,-122.5117,168.8698,0.000,0.000,1.000,0.0000,0.0000,0.0000,0.0000,0.0000,0.0000,0
2026-04-17,12:54:31,11180,1,0.0000,-0.0009,0.0113,0.3312,4.2772,0,1.0000,0,0,4.3225,-30.9157,-86.6845,-74.0625,169.3338,0.000,0.000,0.997,0.0000,0.0000,0.0000,0.0000,0.0000,0.0000,0
2026-04-17,12:54:31,11215,1,0.0000,0.0014,0.0114,0.3356,4.2772,0,1.0000,0,0,3.5281,-25.7056,-87.3890,-40.9321,169.7264,0.000,0.000,0.994,0.0000,0.0000,0.0000,0.0000,0.0000,0.0000,0
2026-04-17,12:54:31,11250,1,0.0000,0.0012,0.0121,0.3561,4.2772,0,1.0000,0,0,2.8689,-21.6672,-88.3542,-34.2555,170.0555,0.000,0.000,0.990,0.0000,0.0000,0.0000,0.0000,0.0000,0.0000,0
2026-04-17,12:54:31,11286,1,0.0000,0.0090,0.0116,0.3415,4.2772,0,1.0000,0,0,2.2971,-18.6925,-90.3125,-58.7828,170.3237,0.000,0.000,0.987,0.0000,0.0000,0.0000,0.0000,0.0000,0.0000,0
2026-04-17,12:54:31,11321,1,0.0000,0.0038,0.0129,0.3804,4.2772,0,1.0000,0,0,1.8147,-15.0387,-92.4519,-59.7443,170.5496,0.000,0.000,0.984,0.0000,0.0000,0.0000,0.0000,0.0000,0.0000,0
2026-04-17,12:54:31,11356,1,0.0000,0.0054,0.0113,0.3334,4.2772,0,1.0000,0,0,1.4207,-12.6185,-93.0257,-29.5257,170.7395,0.000,0.000,0.981,0.0000,0.0000,0.0000,0.0000,0.0000,0.0000,0
2026-04-17,12:54:31,11391,1,0.0000,0.0062,0.0116,0.3415,4.2772,0,1.0000,0,0,1.0706,-11.0512,-93.2863,-15.7429,170.9068,0.000,0.000,0.978,0.0000,0.0000,0.0000,0.0000,0.0000,0.0000,0
2026-04-17,12:54:31,11426,1,0.0000,0.0005,0.0113,0.3334,4.2772,0,1.0000,0,0,0.7943,-9.0013,-91.7181,32.8266,171.0490,0.000,0.000,0.974,0.0000,0.0000,0.0000,0.0000,0.0000,0.0000,0
2026-04-17,12:54:31,11461,1,0.0000,0.0095,0.0118,0.3459,4.2772,0,1.0000,0,0,0.5563,-7.5933,-89.4722,51.7975,171.1688,0.000,0.000,0.971,0.0000,0.0000,0.0000,0.0000,0.0000,0.0000,0
2026-04-17,12:54:31,11496,1,0.0000,-0.0148,0.0117,0.3437,4.2772,0,1.0000,0,0,0.3367,-7.2203,-89.5607,14.9252,171.2693,0.000,0.000,0.968,0.0000,0.0000,0.0000,0.0000,0.0000,0.0000,0
2026-04-17,12:54:31,11531,1,0.0000,-0.0067,0.0120,0.3518,4.2772,0,1.0000,0,0,0.1651,-5.7112,-90.9025,-21.8185,171.3685,0.000,0.000,0.965,0.0000,0.0000,0.0000,0.0000,0.0000,0.0000,0
2026-04-17,12:54:31,11567,1,0.0000,-0.0124,0.0113,0.3334,4.2772,0,1.0000,0,0,-0.0117,-5.5925,-92.0191,-33.4609,171.4621,0.000,0.000,0.962,0.0000,0.0000,0.0000,0.0000,0.0000,0.0000,0
2026-04-17,12:54:31,11602,1,0.0000,0.0053,0.0119,0.3496,4.2772,0,1.0000,0,0,-0.1298,-3.1899,-93.5041,-42.2057,171.5362,0.000,0.000,0.958,0.0000,0.0000,0.0000,0.0000,0.0000,0.0000,0
2026-04-17,12:54:31,11637,1,0.0000,-0.0030,0.0105,0.3091,4.2772,0,1.0000,0,0,-0.2429,-3.7112,-94.9684,-44.3703,171.5771,0.000,0.000,0.955,0.0000,0.0000,0.0000,0.0000,0.0000,0.0000,0
2026-04-17,12:54:31,11672,1,0.0000,-0.0035,0.0111,0.3253,4.2772,0,1.0000,0,0,-0.3373,-2.6000,-97.3833,-66.0196,171.6138,0.000,0.000,0.952,0.0000,0.0000,0.0000,0.0000,0.0000,0.0000,0
2026-04-17,12:54:31,11707,1,0.0000,-0.0019,0.0104,0.3048,4.2772,0,1.0000,0,0,-0.4167,-3.1609,-98.2567,-36.8915,171.6640,0.000,0.000,0.949,0.0000,0.0000,0.0000,0.0000,0.0000,0.0000,0
2026-04-17,12:54:31,11742,1,0.0000,0.0053,0.0107,0.3150,4.2772,0,1.0000,0,0,-0.4975,-2.3223,-98.7578,-22.6212,171.6938,0.000,0.000,0.946,0.0000,0.0000,0.0000,0.0000,0.0000,0.0000,0
2026-04-17,12:54:31,11777,1,0.0000,-0.0109,0.0118,0.3459,4.2772,0,1.0000,0,0,-0.5484,-1.3610,-98.9539,-11.3178,171.7181,0.000,0.000,0.942,0.0000,0.0000,0.0000,0.0000,0.0000,0.0000,0
2026-04-17,12:54:31,11812,1,0.0000,0.0009,0.0115,0.3377,4.2772,0,1.0000,0,0,-0.6031,-1.6740,-98.3922,8.0066,171.7365,0.000,0.000,0.939,0.0000,0.0000,0.0000,0.0000,0.0000,0.0000,0
2026-04-17,12:54:31,11849,1,0.0000,0.0115,0.0113,0.3334,4.2772,0,1.0000,0,0,-0.6218,-0.9560,-98.3149,6.3481,171.7569,0.000,0.000,0.937,0.0000,0.0000,0.0000,0.0000,0.0000,0.0000,0
2026-04-17,12:54:31,11885,1,0.0000,-0.0079,0.0123,0.3620,4.2772,0,1.0000,0,0,-0.6602,-1.2353,-98.7758,-7.6383,171.7642,0.000,0.000,0.934,0.0000,0.0000,0.0000,0.0000,0.0000,0.0000,0
2026-04-17,12:54:31,11920,1,0.0000,0.0017,0.0114,0.3356,4.2772,0,1.0000,0,0,-0.6973,-1.4567,-99.1175,-9.8500,171.7764,0.000,0.000,0.930,0.0000,0.0000,0.0000,0.0000,0.0000,0.0000,0
2026-04-17,12:54:31,11955,1,0.0000,0.0102,0.0113,0.3334,4.2772,0,1.0000,0,0,-0.7310,-0.7786,-99.0947,-3.9078,171.8141,0.000,0.000,0.927,0.0000,0.0000,0.0000,0.0000,0.0000,0.0000,0
2026-04-17,12:54:31,11991,1,0.0000,0.0116,0.0111,0.3253,4.2772,0,1.0000,0,0,-0.7546,-0.7483,-99.9665,-21.6280,171.8359,0.000,0.000,0.924,0.0000,0.0000,0.0000,0.0000,0.0000,0.0000,0
2026-04-17,12:54:31,12026,1,0.0000,-0.0056,0.0113,0.3312,4.2772,0,1.0000,0,0,-0.7564,-0.6768,-101.4310,-40.5936,171.8456,0.000,0.000,0.921,0.0000,0.0000,0.0000,0.0000,0.0000,0.0000,0
2026-04-17,12:54:32,12061,1,0.0000,-0.0025,0.0116,0.3415,4.2772,0,1.0000,0,0,-0.7653,-0.3410,-103.2236,-47.0041,171.8542,0.000,0.000,0.918,0.0000,0.0000,0.0000,0.0000,0.0000,0.0000,0
2026-04-17,12:54:32,12097,1,0.0000,0.0133,0.0112,0.3291,4.2772,0,1.0000,0,0,-0.7835,-0.7041,-103.3262,-15.8473,171.8697,0.000,0.000,0.914,0.0000,0.0000,0.0000,0.0000,0.0000,0.0000,0
2026-04-17,12:54:32,12132,1,0.0000,-0.0112,0.0104,0.3069,4.2772,0,1.0000,0,0,-0.7958,-0.3099,-102.8288,-3.1054,171.8745,0.000,0.000,0.911,0.0000,0.0000,0.0000,0.0000,0.0000,0.0000,0
2026-04-17,12:54:32,12167,1,0.0000,0.0004,0.0110,0.3232,4.2772,0,1.0000,0,0,-0.8044,-0.1197,-102.7278,4.7891,171.8850,0.000,0.000,0.908,0.0000,0.0000,0.0000,0.0000,0.0000,0.0000,0
2026-04-17,12:54:32,12203,1,0.0000,-0.0014,0.0109,0.3210,4.2772,0,1.0000,0,0,-0.8131,-0.0973,-101.6889,23.2881,171.8719,0.000,0.000,0.905,0.0000,0.0000,0.0000,0.0000,0.0000,0.0000,0
2026-04-17,12:54:32,12238,1,0.0000,-0.0072,0.0115,0.3394,4.2772,0,1.0000,0,0,-0.8394,-0.5489,-101.6747,2.4800,171.8781,0.000,0.000,0.902,0.0000,0.0000,0.0000,0.0000,0.0000,0.0000,0
2026-04-17,12:54:32,12273,1,0.0000,0.0016,0.0108,0.3189,4.2772,0,1.0000,0,0,-0.8456,-0.1815,-103.6153,-40.3641,171.8885,0.000,0.000,0.898,0.0000,0.0000,0.0000,0.0000,0.0000,0.0000,0
2026-04-17,12:54:32,12308,1,0.0000,-0.0002,0.0109,0.3194,4.2772,0,1.0000,0,0,-0.8431,0.0725,-104.4466,-28.8777,171.8920,0.000,0.000,0.895,0.0000,0.0000,0.0000,0.0000,0.0000,0.0000,0
2026-04-17,12:54:32,12343,1,0.0000,-0.0050,0.0114,0.3356,4.2772,0,1.0000,0,0,-0.8427,0.2956,-105.2845,-25.7017,171.8818,0.000,0.000,0.892,0.0000,0.0000,0.0000,0.0000,0.0000,0.0000,0
2026-04-17,12:54:32,12378,1,0.0000,0.0113,0.0107,0.3151,4.2772,0,1.0000,0,0,-0.8617,-0.0608,-105.1870,-7.5182,171.8926,0.000,0.000,0.889,0.0000,0.0000,0.0000,0.0000,0.0000,0.0000,0
2026-04-17,12:54:32,12413,1,0.0000,-0.0007,0.0116,0.3415,4.2772,0,1.0000,0,0,-0.8574,0.2606,-104.1152,18.9789,171.8921,0.000,0.000,0.886,0.0000,0.0000,0.0000,0.0000,0.0000,0.0000,0
2026-04-17,12:54:32,12448,1,0.0000,-0.0030,0.0125,0.3686,4.2772,0,1.0000,0,0,-0.8500,0.0963,-104.4545,-3.1066,171.8847,0.000,0.000,0.882,0.0000,0.0000,0.0000,0.0000,0.0000,0.0000,0
2026-04-17,12:54:32,12483,1,0.0000,-0.0101,0.0114,0.3356,4.2772,0,1.0000,0,0,-0.8586,-0.2430,-104.4874,-1.8725,171.8747,0.000,0.000,0.879,0.0000,0.0000,0.0000,0.0000,0.0000,0.0000,0
2026-04-17,12:54:32,12518,1,0.0000,-0.0052,0.0120,0.3518,4.2772,0,1.0000,0,0,-0.8374,0.6700,-104.1790,4.1678,171.8871,0.000,0.000,0.876,0.0000,0.0000,0.0000,0.0000,0.0000,0.0000,0
2026-04-17,12:54:32,12553,1,0.0000,-0.0026,0.0113,0.3318,4.2772,0,1.0000,0,0,-0.8612,-0.5046,-102.9619,27.5253,171.8880,0.000,0.000,0.873,0.0000,0.0000,0.0000,0.0000,0.0000,0.0000,0
2026-04-17,12:54:32,12588,1,0.0000,0.0024,0.0114,0.3356,4.2772,0,1.0000,0,0,-0.8550,0.2067,-101.4807,40.5174,171.8909,0.000,0.000,0.870,0.0000,0.0000,0.0000,0.0000,0.0000,0.0000,0
2026-04-17,12:54:32,12629,1,0.0000,-0.0021,0.0112,0.3296,4.2772,0,1.0000,0,0,-0.8726,-0.4864,-100.8079,34.6253,171.8949,0.000,0.000,0.867,0.0000,0.0000,0.0000,0.0000,0.0000,0.0000,0
2026-04-17,12:54:32,12664,1,0.0000,-0.0039,0.0120,0.3518,4.2772,0,1.0000,0,0,-0.8740,0.3139,-100.2046,23.7056,171.8934,0.000,0.000,0.864,0.0000,0.0000,0.0000,0.0000,0.0000,0.0000,0
2026-04-17,12:54:32,12699,1,0.0000,0.0140,0.0105,0.3091,4.2772,0,1.0000,0,0,-0.8792,-0.3497,-99.5265,24.1088,171.9028,0.000,0.000,0.861,0.0000,0.0000,0.0000,0.0000,0.0000,0.0000,0
2026-04-17,12:54:32,12734,1,0.0000,0.0115,0.0109,0.3210,4.2772,0,1.0000,0,0,-0.8800,0.1437,-99.0226,16.3032,171.8967,0.000,0.000,0.858,0.0000,0.0000,0.0000,0.0000,0.0000,0.0000,0
2026-04-17,12:54:32,12769,1,0.0000,-0.0163,0.0116,0.3422,4.2772,0,1.0000,0,0,-0.8793,0.1120,-99.8462,-13.7224,171.9023,0.000,0.000,0.854,0.0000,0.0000,0.0000,0.0000,0.0000,0.0000,0
2026-04-17,12:54:32,12805,1,0.0000,-0.0056,0.0117,0.3437,4.2772,0,1.0000,0,0,-0.8843,-0.1001,-101.0908,-27.7753,171.9025,0.000,0.000,0.851,0.0000,0.0000,0.0000,0.0000,0.0000,0.0000,0
2026-04-17,12:54:32,12840,1,0.0000,0.0046,0.0113,0.3317,4.2772,0,1.0000,0,0,-0.9160,-1.0699,-101.5620,-21.3657,171.8901,0.000,0.000,0.848,0.0000,0.0000,0.0000,0.0000,0.0000,0.0000,0
2026-04-17,12:54:32,12875,1,0.0000,0.0059,0.0117,0.3437,4.2772,0,1.0000,0,0,-0.9298,-0.6318,-101.0847,4.3910,171.8818,0.000,0.000,0.845,0.0000,0.0000,0.0000,0.0000,0.0000,0.0000,0
2026-04-17,12:54:32,12910,1,0.0000,-0.0047,0.0118,0.3480,4.2772,0,1.0000,0,0,-0.9412,-0.8005,-100.4889,12.3524,171.8899,0.000,0.000,0.842,0.0000,0.0000,0.0000,0.0000,0.0000,0.0000,0
2026-04-17,12:54:32,12945,1,0.0000,-0.0040,0.0111,0.3253,4.2772,0,1.0000,0,0,-0.9273,0.8721,-100.7689,-1.6720,171.8831,0.000,0.000,0.838,0.0000,0.0000,0.0000,0.0000,0.0000,0.0000,0
2026-04-17,12:54:32,12980,1,0.0000,0.0023,0.0106,0.3113,4.2772,0,1.0000,0,0,-0.9160,0.5573,-101.3264,-11.9680,171.8735,0.000,0.000,0.835,0.0000,0.0000,0.0000,0.0000,0.0000,0.0000,0
2026-04-17,12:54:32,13015,1,0.0000,-0.0112,0.0109,0.3210,4.2772,0,1.0000,0,0,-0.9195,-0.3013,-101.5216,-9.9612,171.8754,0.000,0.000,0.832,0.0000,0.0000,0.0000,0.0000,0.0000,0.0000,0
2026-04-17,12:54:33,13050,1,0.0000,0.0078,0.0107,0.3150,4.2772,0,1.0000,0,0,-0.9187,-0.4443,-103.1396,-37.4769,171.8484,0.000,0.000,0.829,0.0000,0.0000,0.0000,0.0000,0.0000,0.0000,0
2026-04-17,12:54:33,13085,1,0.0000,-0.0044,0.0118,0.3459,4.2772,0,1.0000,0,0,-0.9121,-0.5912,-104.7705,-47.3046,171.8028,0.000,0.000,0.826,0.0000,0.0000,0.0000,0.0000,0.0000,0.0000,0
2026-04-17,12:54:33,13121,1,0.0000,-0.0105,0.0132,0.3885,4.2772,0,1.0000,0,0,-0.8808,0.5792,-106.5372,-54.2293,171.6298,0.000,0.000,0.822,0.0000,0.0000,0.0000,0.0000,0.0000,0.0000,0
2026-04-17,12:54:33,13156,1,0.0000,0.0007,0.0117,0.3437,4.2772,0,1.0000,0,0,-0.7976,2.4725,-108.1248,-47.2136,171.2578,0.000,0.000,0.819,0.0000,0.0000,0.0000,0.0000,0.0000,0.0000,0
2026-04-17,12:54:33,13191,1,0.0000,0.0149,0.0120,0.3518,4.2772,0,1.0000,0,0,-0.7177,2.3421,-108.5418,-21.8202,171.0458,0.000,0.000,0.816,0.0000,0.0000,0.0000,0.0000,0.0000,0.0000,0
2026-04-17,12:54:33,13227,1,0.0000,0.0118,0.0104,0.3048,4.2772,0,1.0000,0,0,-0.5120,6.9188,-109.8267,-32.9775,171.1637,0.000,0.000,0.813,0.0000,0.0000,0.0000,0.0000,0.0000,0.0000,0
2026-04-17,12:54:33,13262,1,0.0000,-0.0011,0.0119,0.3502,4.2772,0,1.0000,0,0,-0.4530,0.9591,-112.0705,-56.8208,171.4872,0.000,0.000,0.810,0.0000,0.0000,0.0000,0.0000,0.0000,0.0000,0
2026-04-17,12:54:33,13297,1,0.0000,0.0058,0.0110,0.3231,4.2772,0,1.0000,0,0,-0.4160,0.9474,-115.6597,-95.1672,171.7557,0.000,0.000,0.806,0.0000,0.0000,0.0000,0.0000,0.0000,0.0000,0
2026-04-17,12:54:33,13333,1,0.0000,-0.0055,0.0113,0.3312,4.2772,0,1.0000,0,0,-0.4054,-0.0300,-119.7585,-115.2965,171.9519,0.000,0.000,0.803,0.0000,0.0000,0.0000,0.0000,0.0000,0.0000,0
2026-04-17,12:54:33,13368,1,0.0000,0.0075,0.0117,0.3437,4.2772,0,1.0000,0,0,-0.4638,-2.2113,-123.8938,-126.7651,172.0834,0.000,0.000,0.800,0.0000,0.0000,0.0000,0.0000,0.0000,0.0000,0
2026-04-17,12:54:33,13401,1,0.0000,0.0070,0.0104,0.3069,4.2772,0,1.0000,0,0,-0.4852,-1.5409,-125.0303,-106.7512,172.0892,0.000,0.000,0.798,0.0000,0.0000,0.0000,0.0000,0.0000,0.0000,0
2026-04-17,12:54:33,13437,1,0.0000,-0.0030,0.0121,0.3556,4.2772,0,1.0000,0,0,-0.5579,-2.3935,-128.9936,-118.2013,172.0192,0.000,0.000,0.795,0.0000,0.0000,0.0000,0.0000,0.0000,0.0000,0
2026-04-17,12:54:33,13472,1,0.0000,0.0000,0.0117,0.3454,4.2772,0,1.0000,0,0,-0.6359,-2.6385,-132.6077,-117.2188,171.9600,0.000,0.000,0.792,0.0000,0.0000,0.0000,0.0000,0.0000,0.0000,0
2026-04-17,12:54:33,13507,1,0.0000,0.0069,0.0113,0.3313,4.2772,0,1.0000,0,0,-0.7037,-2.2936,-136.5282,-121.2714,171.9112,0.000,0.000,0.789,0.0000,0.0000,0.0000,0.0000,0.0000,0.0000,0
2026-04-17,12:54:33,13542,1,0.0000,-0.0105,0.0122,0.3599,4.2772,0,1.0000,0,0,-0.7570,-1.4120,-139.8596,-110.0606,171.8789,0.000,0.000,0.786,0.0000,0.0000,0.0000,0.0000,0.0000,0.0000,0
2026-04-17,12:54:33,13577,1,0.0000,-0.0047,0.0118,0.3480,4.2772,0,1.0000,0,0,-0.7545,0.0533,-142.4364,-91.1547,171.8489,0.000,0.000,0.782,0.0000,0.0000,0.0000,0.0000,0.0000,0.0000,0
2026-04-17,12:54:33,13612,1,0.0000,0.0070,0.0113,0.3313,4.2772,0,1.0000,0,0,-0.7837,-1.2940,-144.1581,-64.7635,171.8140,0.000,0.000,0.779,0.0000,0.0000,0.0000,0.0000,0.0000,0.0000,0
2026-04-17,12:54:33,13648,1,0.0000,-0.0080,0.0121,0.3561,4.2772,0,1.0000,0,0,-0.8188,-1.4184,-145.0293,-39.8252,171.7825,0.000,0.000,0.776,0.0000,0.0000,0.0000,0.0000,0.0000,0.0000,0
2026-04-17,12:54:33,13683,1,0.0000,-0.0002,0.0115,0.3372,4.2772,0,1.0000,0,0,-0.8325,-0.6488,-145.1831,-16.2671,171.7647,0.000,0.000,0.773,0.0000,0.0000,0.0000,0.0000,0.0000,0.0000,0
2026-04-17,12:54:33,13718,1,0.0000,-0.0004,0.0118,0.3480,4.2772,0,1.0000,0,0,-0.8731,-1.1145,-144.8780,-0.6827,171.7592,0.000,0.000,0.770,0.0000,0.0000,0.0000,0.0000,0.0000,0.0000,0
2026-04-17,12:54:33,13754,1,0.0000,-0.0060,0.0114,0.3339,4.2772,0,1.0000,0,0,-0.8867,0.0363,-145.1233,-4.8661,171.7437,0.000,0.000,0.766,0.0000,0.0000,0.0000,0.0000,0.0000,0.0000,0
2026-04-17,12:54:33,13789,1,0.0000,0.0034,0.0111,0.3270,4.2772,0,1.0000,0,0,-0.8961,-0.0652,-145.6514,-13.8044,171.7555,0.000,0.000,0.763,0.0000,0.0000,0.0000,0.0000,0.0000,0.0000,0
2026-04-17,12:54:33,13825,1,0.0000,0.0088,0.0127,0.3723,4.2772,0,1.0000,0,0,-0.9118,-0.2269,-146.5133,-22.4101,171.7448,0.000,0.000,0.760,0.0000,0.0000,0.0000,0.0000,0.0000,0.0000,0
2026-04-17,12:54:33,13860,1,0.0000,-0.0030,0.0115,0.3394,4.2772,0,1.0000,0,0,-0.9121,0.2774,-146.0049,6.0784,171.7436,0.000,0.000,0.757,0.0000,0.0000,0.0000,0.0000,0.0000,0.0000,0
2026-04-17,12:54:33,13895,1,0.0000,0.0004,0.0116,0.3415,4.2772,0,1.0000,0,0,-0.9224,-0.2727,-145.6303,10.3560,171.7200,0.000,0.000,0.754,0.0000,0.0000,0.0000,0.0000,0.0000,0.0000,0
2026-04-17,12:54:33,13931,1,0.0000,-0.0033,0.0104,0.3048,4.2772,0,1.0000,0,0,-0.9370,-0.5232,-144.9699,16.0112,171.7177,0.000,0.000,0.750,0.0000,0.0000,0.0000,0.0000,0.0000,0.0000,0
2026-04-17,12:54:33,13966,1,0.0000,0.0070,0.0115,0.3372,4.2772,0,1.0000,0,0,-0.9339,-0.1353,-144.0875,25.7103,171.7172,0.000,0.000,0.747,0.0000,0.0000,0.0000,0.0000,0.0000,0.0000,0
2026-04-17,12:54:33,14001,1,0.0000,-0.0020,0.0127,0.3745,4.2772,0,1.0000,0,0,-0.9394,-0.2907,-143.3070,22.6128,171.6873,0.000,0.000,0.744,0.0000,0.0000,0.0000,0.0000,0.0000,0.0000,0
2026-04-17,12:54:34,14036,1,0.0000,0.0127,0.0106,0.3129,4.2772,0,1.0000,0,0,-0.9388,-0.6572,-143.4918,4.3195,171.6729,0.000,0.000,0.741,0.0000,0.0000,0.0000,0.0000,0.0000,0.0000,0
2026-04-17,12:54:34,14071,1,0.0000,0.0148,0.0106,0.3108,4.2772,0,1.0000,0,0,-0.9478,-0.1952,-143.5933,-0.0095,171.6700,0.000,0.000,0.738,0.0000,0.0000,0.0000,0.0000,0.0000,0.0000,0
2026-04-17,12:54:34,14106,1,0.0000,0.0063,0.0111,0.3275,4.2772,0,1.0000,0,0,-0.9510,-0.3304,-143.6952,-3.3330,171.6593,0.000,0.000,0.734,0.0000,0.0000,0.0000,0.0000,0.0000,0.0000,0
2026-04-17,12:54:34,14141,1,0.0000,0.0064,0.0114,0.3356,4.2772,0,1.0000,0,0,-0.9572,-0.0906,-144.1275,-10.1037,171.6674,0.000,0.000,0.731,0.0000,0.0000,0.0000,0.0000,0.0000,0.0000,0
2026-04-17,12:54:34,14174,1,0.0000,0.0114,0.0120,0.3518,4.2772,0,1.0000,0,0,-0.9669,-0.1902,-144.2172,-8.5297,171.6766,0.000,0.000,0.730,0.0000,0.0000,0.0000,0.0000,0.0000,0.0000,0
2026-04-17,12:54:34,14215,1,0.0000,0.0010,0.0109,0.3194,4.2772,0,1.0000,0,0,-0.9698,0.0200,-144.0024,0.7778,171.6625,0.000,0.000,0.726,0.0000,0.0000,0.0000,0.0000,0.0000,0.0000,0
2026-04-17,12:54:34,14251,1,7.3600,3.0335,0.3819,11.2318,4.2729,0,1.0000,920,1,-1.4114,-28.8067,-144.4096,-3.4346,171.7216,0.016,0.000,0.722,0.0000,0.0000,0.0000,0.0000,0.0000,0.0000,0
2026-04-17,12:54:34,14286,1,7.3600,7.7957,-0.0166,0.4886,4.2079,0,1.0000,920,1,-0.9530,6.2088,-141.6323,52.1042,170.9623,0.008,0.000,0.719,0.0000,0.0000,0.0000,0.0000,0.0000,0.0000,0
2026-04-17,12:54:34,14321,1,7.3600,6.1629,0.1935,5.6912,4.1604,0,1.0000,920,1,-11.6961,-403.7923,-145.1554,-54.8654,168.1129,0.048,0.000,0.716,0.0000,0.0000,0.0000,0.0000,0.0000,0.0000,0
2026-04-17,12:54:34,14357,1,7.9920,8.0240,0.1676,4.9281,4.1026,0,1.0000,999,1,-36.1736,-500.1955,-149.1023,-16.4573,144.3222,0.112,0.000,0.713,0.0000,0.0000,0.0000,0.0000,0.0000,0.0000,0
2026-04-17,12:54:34,14393,1,7.9920,8.2737,0.1460,4.2954,4.0410,0,1.0000,999,1,-22.9520,360.0037,-126.4147,501.4454,110.0634,0.176,0.000,0.710,0.0000,0.0000,0.0000,0.0000,0.0000,0.0000,0
2026-04-17,12:54:34,14428,1,7.9920,7.8903,0.1332,3.9165,3.9793,0,1.0000,999,1,-6.7055,406.8757,-92.3169,832.9654,99.8840,0.168,0.000,0.706,0.0000,0.0000,0.0000,0.0000,0.0000,0.0000,0
2026-04-17,12:54:34,14464,1,7.9920,8.6009,0.0520,1.5283,3.9161,0,1.0000,999,1,-6.0448,10.5777,-72.8309,643.8823,109.3931,0.136,0.000,0.703,0.0000,0.0000,0.0000,0.0000,0.0000,0.0000,0
2026-04-17,12:54:34,14500,1,7.9920,8.1211,0.0195,0.5749,3.8513,0,1.0000,999,1,-7.3606,-7.3010,-64.3926,387.7982,117.1775,0.104,0.000,0.700,0.0000,0.0000,0.0000,0.0000,0.0000,0.0000,0
2026-04-17,12:54:34,14535,1,7.9920,7.9230,0.0414,1.2186,3.7914,0,1.0000,999,1,-4.7542,92.1969,-59.4738,240.7431,123.3536,0.072,0.000,0.697,0.0000,0.0000,0.0000,0.0000,0.0000,0.0000,0
2026-04-17,12:54:34,14571,1,7.9920,8.0896,0.0275,0.8093,3.7304,0,1.0000,999,1,0.2970,161.2075,-54.9421,183.5094,128.8632,0.040,0.000,0.694,0.0000,0.0000,0.0000,0.0000,0.0000,0.0000,0
2026-04-17,12:54:34,14607,1,7.9920,7.8546,0.0424,1.2458,3.6692,0,1.0000,999,1,5.3185,146.8031,-50.9053,147.3000,133.4790,0.008,0.000,0.699,0.0000,0.0000,0.0000,0.0000,0.0000,0.0000,0
2026-04-17,12:54:34,14643,1,0.0000,7.3166,0.1287,3.7853,3.6119,0,1.0000,0,1,6.7992,44.2552,-51.0367,47.1418,135.0327,0.000,0.000,0.731,0.0000,0.0000,0.0000,0.0000,0.0000,0.0000,0
2026-04-17,12:54:34,14678,1,0.0000,-1.0600,0.0301,0.8845,3.6054,0,1.0000,0,1,5.3805,-18.9811,-57.8940,-117.0215,124.6335,0.000,0.000,0.754,0.0000,0.0000,0.0000,0.0000,0.0000,0.0000,0
2026-04-17,12:54:34,14713,1,0.0000,0.0954,0.0049,0.1450,3.6067,0,1.0000,0,1,7.6899,61.4715,-65.9384,-202.1244,79.3711,0.000,0.000,0.769,0.0000,0.0000,0.0000,0.0000,0.0000,0.0000,0
2026-04-17,12:54:34,14748,1,0.0000,-0.4175,0.0649,1.9079,3.6086,0,1.0000,0,1,11.8252,86.1103,-73.0302,-208.2384,44.8761,0.000,0.000,0.801,0.0000,0.0000,0.0000,0.0000,0.0000,0.0000,0
2026-04-17,12:54:34,14784,1,0.0000,0.1659,0.0390,1.1477,3.6088,0,1.0000,0,1,8.8459,-100.9602,-78.8833,-226.1296,47.2118,0.000,0.000,0.833,0.0000,0.0000,0.0000,0.0000,0.0000,0.0000,0
2026-04-17,12:54:34,14819,1,0.0000,0.0869,0.0224,0.6581,3.6077,0,1.0000,0,1,6.2009,-56.9932,-87.0619,-260.6513,65.3170,0.000,0.000,0.865,0.0000,0.0000,0.0000,0.0000,0.0000,0.0000,0
2026-04-17,12:54:34,14855,1,0.0000,-0.0176,0.0275,0.8087,3.6077,0,1.0000,0,1,7.4640,36.3730,-94.1107,-239.6853,78.2211,0.016,0.000,0.897,0.0000,0.0000,0.0000,0.0000,0.0000,0.0000,0
2026-04-17,12:54:34,14890,1,0.0000,0.0253,0.0242,0.7119,3.6077,0,1.0000,0,1,8.9069,30.7674,-101.6571,-236.1023,88.8440,0.000,0.000,0.929,0.0000,0.0000,0.0000,0.0000,0.0000,0.0000,0
2026-04-17,12:54:34,14925,1,0.0000,-0.0052,0.0254,0.7480,3.6076,0,1.0000,0,1,9.5071,15.4539,-110.5287,-256.2505,99.4427,0.000,0.000,0.961,0.0000,0.0000,0.0000,0.0000,0.0000,0.0000,0
2026-04-17,12:54:34,14963,1,0.0000,0.0087,0.0236,0.6950,3.6076,0,1.0000,0,1,10.6354,23.2604,-116.8191,-227.9244,103.3490,0.000,0.000,0.985,0.0000,0.0000,0.0000,0.0000,0.0000,0.0000,0
2026-04-17,12:54:34,14998,1,0.0000,0.0007,0.0246,0.7229,3.6076,0,1.0000,0,1,10.4099,-8.7859,-124.5098,-234.3119,81.4001,0.000,0.000,1.000,0.0000,0.0000,0.0000,0.0000,0.0000,0.0000,0
2026-04-17,12:54:35,15033,1,0.0000,-0.0054,0.0246,0.7246,3.6076,0,1.0000,0,1,9.9443,-19.6319,-131.7345,-230.6575,55.0520,0.000,0.000,1.000,0.0000,0.0000,0.0000,0.0000,0.0000,0.0000,0
2026-04-17,12:54:35,15069,1,0.0000,-0.0067,0.0246,0.7229,3.6075,0,1.0000,0,1,9.3302,-22.9155,-138.0467,-211.8436,73.5648,0.000,0.000,1.000,0.0000,0.0000,0.0000,0.0000,0.0000,0.0000,0
2026-04-17,12:54:35,15104,1,0.0000,0.0155,0.0218,0.6411,3.6074,0,1.0000,0,1,8.6074,-25.3084,-143.2555,-182.7027,88.6285,0.000,0.000,1.000,0.0000,0.0000,0.0000,0.0000,0.0000,0.0000,0
2026-04-17,12:54:35,15139,1,0.0000,0.0155,0.0206,0.6074,3.6073,0,1.0000,0,1,7.8625,-26.5159,-147.1756,-146.8913,100.7662,0.000,0.000,1.000,0.0000,0.0000,0.0000,0.0000,0.0000,0.0000,0
2026-04-17,12:54:35,15175,1,5.4640,2.1509,0.2996,8.8130,3.6042,0,1.0000,683,1,7.4452,-15.5955,-148.4637,-57.0799,110.7352,0.016,0.000,1.000,0.0000,0.0000,0.0000,0.0000,0.0000,0.0000,0
2026-04-17,12:54:35,15211,1,5.4640,6.1547,0.0797,2.3455,3.5611,0,1.0000,683,1,5.4136,-83.3398,-133.2080,333.8009,118.9201,0.080,0.000,1.000,0.0000,0.0000,0.0000,0.0000,0.0000,0.0000,0
2026-04-17,12:54:35,15246,1,7.3600,5.8559,0.0595,1.7499,3.5176,0,1.0000,920,1,0.4640,-153.1738,-108.9406,629.0262,126.2293,0.144,0.000,0.997,0.0000,0.0000,0.0000,0.0000,0.0000,0.0000,0
2026-04-17,12:54:35,15283,1,7.9920,8.0507,0.1044,3.0717,3.4626,0,1.0000,999,1,0.6523,32.8616,-94.9942,468.6363,133.4457,0.208,0.000,0.994,0.0000,0.0000,0.0000,0.0000,0.0000,0.0000,0
2026-04-17,12:54:35,15318,1,7.9920,7.8870,0.1087,3.1974,3.4034,0,1.0000,999,1,4.7330,105.2000,-94.3473,161.1171,138.5276,0.224,0.000,0.990,0.0000,0.0000,0.0000,0.0000,0.0000,0.0000,0
2026-04-17,12:54:35,15354,1,7.9920,8.0010,0.1109,3.2611,3.3435,0,1.0000,999,1,4.3882,-27.0576,-81.7305,369.4572,143.1818,0.192,0.000,0.998,0.0000,0.0000,0.0000,0.0000,0.0000,0.0000,0
2026-04-17,12:54:35,15389,1,7.9920,7.7985,0.1412,4.1517,3.2833,0,1.0000,999,1,2.4606,-52.4425,-54.4427,692.2478,147.4205,0.184,0.000,0.995,0.0000,0.0000,0.0000,0.0000,0.0000,0.0000,0
2026-04-17,12:54:35,15424,1,7.9920,7.8765,0.1590,4.6762,3.2241,0,1.0000,999,1,2.7506,10.2639,-46.2375,373.4049,150.6408,0.248,0.000,0.992,0.0000,0.0000,0.0000,0.0000,0.0000,0.0000,0
2026-04-17,12:54:35,15460,1,7.9920,8.1299,0.1288,3.7894,3.1638,0,1.0000,999,1,2.9806,-3.1936,-53.2218,-13.8504,153.8932,0.216,0.000,0.989,0.0000,0.0000,0.0000,0.0000,0.0000,0.0000,0
2026-04-17,12:54:35,15495,1,7.9920,8.1547,0.1173,3.4496,3.1022,0,1.0000,999,1,2.0200,-35.2938,-46.9701,176.3642,156.7328,0.232,0.000,0.986,0.0000,0.0000,0.0000,0.0000,0.0000,0.0000,0
2026-04-17,12:54:35,15531,1,7.9920,8.0822,0.1122,3.2996,3.0397,0,1.0000,999,1,1.9840,3.8641,-37.6366,231.6927,158.9100,0.296,0.000,0.982,0.0000,0.0000,0.0000,0.0000,0.0000,0.0000,0
2026-04-17,12:54:35,15567,1,7.9920,8.0678,0.1027,3.0195,2.9780,0,1.0000,999,1,2.1610,13.9073,-25.7765,304.1369,160.6969,0.336,0.000,0.979,0.0000,0.0000,0.0000,0.0000,0.0000,0.0000,0
2026-04-17,12:54:35,15603,1,7.9920,8.0741,0.0771,2.2689,2.9148,0,1.0000,999,1,1.7529,-16.1243,-21.7909,194.1142,162.1052,0.304,0.000,0.976,0.0000,0.0000,0.0000,0.0000,0.0000,0.0000,0
2026-04-17,12:54:35,15639,1,7.9920,7.9339,0.0805,2.3680,2.8535,0,1.0000,999,1,1.6315,-8.1630,-26.4696,-30.9821,163.1238,0.272,0.000,0.973,0.0000,0.0000,0.0000,0.0000,0.0000,0.0000,0
2026-04-17,12:54:35,15675,1,7.9920,7.9190,0.0951,2.7959,2.7930,0,1.0000,999,1,1.7758,2.8407,-29.1307,-94.6076,163.9732,0.240,0.000,0.970,0.0000,0.0000,0.0000,0.0000,0.0000,0.0000,0
2026-04-17,12:54:35,15710,1,7.9920,7.8708,0.1097,3.2272,2.7334,0,1.0000,999,1,1.7686,-2.0704,-27.9168,49.6297,165.0575,0.208,0.000,0.966,0.0000,0.0000,0.0000,0.0000,0.0000,0.0000,0
2026-04-17,12:54:35,15750,1,7.9920,7.7910,0.1487,4.3739,2.6745,0,1.0000,999,1,1.8994,-0.0694,-25.5498,52.9516,165.4185,0.184,0.000,0.964,0.0000,0.0000,0.0000,0.0000,0.0000,0.0000,0
2026-04-17,12:54:35,15786,1,7.9920,8.2326,0.1033,3.0388,2.6049,0,1.0000,999,1,-0.2834,-79.1480,-16.2186,244.8547,166.6347,0.224,0.000,0.961,0.0000,0.0000,0.0000,0.0000,0.0000,0.0000,0
2026-04-17,12:54:35,15822,1,7.9920,8.2116,0.0730,2.1471,2.5411,0,1.0000,999,1,-0.6551,-9.2922,4.2861,499.1775,167.2408,0.288,0.016,0.958,0.0000,0.0000,0.0000,0.0000,0.0000,0.0000,0
2026-04-17,12:54:35,15857,1,7.9920,7.7745,0.0997,2.9318,2.4826,0,1.0000,999,1,0.4311,42.1314,9.4293,286.8197,167.1582,0.328,0.080,0.954,0.0000,0.0000,0.0000,0.0000,0.0000,0.0000,0
2026-04-17,12:54:35,15893,1,0.4880,4.1164,-0.0391,1.1490,2.4309,0,1.0000,61,1,0.0367,-37.4860,14.7945,171.5864,168.0402,0.296,0.144,0.951,0.0000,0.0000,0.0000,0.0000,0.0000,0.0000,0
2026-04-17,12:54:35,15929,1,0.0000,-0.4622,-0.0011,0.0323,2.4286,0,1.0000,0,1,-0.8905,-33.9959,20.8687,222.4029,168.8818,0.312,0.208,0.948,0.0000,0.0000,0.0000,0.0000,0.0000,0.0000,0
2026-04-17,12:54:35,15965,1,0.0000,0.0091,-0.0105,0.3090,2.4293,0,1.0000,0,1,-1.5595,-15.8049,38.5830,450.3005,169.4964,0.280,0.272,0.945,0.0000,0.0000,0.0000,0.0000,0.0000,0.0000,0
2026-04-17,12:54:35,16001,1,0.0000,0.0083,-0.0115,0.3373,2.4293,0,1.0000,0,1,-1.3300,13.8600,60.0852,603.3664,169.7740,0.248,0.336,0.942,0.0000,0.0000,0.0000,0.0000,0.0000,0.0000,0
2026-04-17,12:54:36,16036,1,0.0000,0.0007,-0.0105,0.3097,2.4293,0,1.0000,0,1,-0.0489,42.6501,81.1911,642.4874,169.7572,0.216,0.400,0.938,0.0000,0.0000,0.0000,0.0000,0.0000,0.0000,0
2026-04-17,12:54:36,16072,1,0.0000,0.0165,-0.0115,0.3373,2.4293,0,1.0000,0,1,0.6534,13.3309,100.2377,613.8914,169.7411,0.184,0.464,0.935,0.0000,0.0000,0.0000,0.0000,0.0000,0.0000,0
2026-04-17,12:54:36,16108,1,0.0000,-0.0115,-0.0099,0.2910,2.4293,0,1.0000,0,1,0.0696,-18.5707,116.3692,543.7834,169.7908,0.152,0.528,0.932,0.0000,0.0000,0.0000,0.0000,0.0000,0.0000,0
2026-04-17,12:54:36,16143,1,0.0000,0.0029,-0.0102,0.2999,2.4293,0,1.0000,0,1,-0.4512,-12.9656,129.5654,463.4802,169.9489,0.120,0.592,0.929,0.0000,0.0000,0.0000,0.0000,0.0000,0.0000,0
2026-04-17,12:54:36,16179,1,0.0000,0.0117,-0.0115,0.3377,2.4293,0,1.0000,0,1,-0.1480,8.7910,140.2904,376.9206,170.1607,0.088,0.656,0.926,0.0000,0.0000,0.0000,0.0000,0.0000,0.0000,0
2026-04-17,12:54:36,16215,1,0.0000,-0.0010,-0.0102,0.3002,2.4293,0,1.0000,0,1,-0.3692,-9.2712,148.8449,306.4415,170.3013,0.056,0.720,0.922,0.0000,0.0000,0.0000,0.0000,0.0000,0.0000,0
2026-04-17,12:54:36,16251,1,0.0000,-0.0078,-0.0105,0.3094,2.4293,0,1.0000,0,1,-0.4632,0.0969,155.6153,244.8077,170.2187,0.024,0.784,0.919,0.0000,0.0000,0.0000,0.0000,0.0000,0.0000,0
2026-04-17,12:54:36,16286,1,0.0000,0.0061,-0.0102,0.3005,2.4293,0,1.0000,0,1,-0.3898,-0.6664,160.7672,187.1515,170.3904,0.000,0.848,0.916,0.0000,0.0000,0.0000,0.0000,0.0000,0.0000,0
2026-04-17,12:54:36,16322,1,0.0000,0.0013,-0.0092,0.2713,2.4293,0,1.0000,0,1,-0.5568,-3.8180,164.7683,146.8505,170.4303,0.000,0.912,0.913,0.0000,0.0000,0.0000,0.0000,0.0000,0.0000,0
2026-04-17,12:54:36,16357,1,0.0000,-0.0018,-0.0096,0.2811,2.4293,0,1.0000,0,1,-0.4781,1.3336,167.9193,116.1200,170.3814,0.000,0.976,0.910,0.0000,0.0000,0.0000,0.0000,0.0000,0.0000,0
2026-04-17,12:54:36,16393,1,0.0000,-0.0087,-0.0086,0.2538,2.4293,0,1.0000,0,1,-0.5629,-2.7182,170.2543,88.5342,170.5353,0.000,1.000,0.906,0.0000,0.0000,0.0000,0.0000,0.0000,0.0000,0
2026-04-17,12:54:36,16428,1,0.0000,-0.0018,-0.0096,0.2811,2.4293,0,1.0000,0,1,-0.5625,-0.0828,172.0831,67.5485,170.4288,0.000,0.968,0.903,0.0000,0.0000,0.0000,0.0000,0.0000,0.0000,0
2026-04-17,12:54:36,16463,1,0.0000,0.0017,-0.0089,0.2630,2.4293,0,1.0000,0,1,-0.6153,-1.9855,173.4342,51.0026,170.5710,0.000,0.936,0.900,0.0000,0.0000,0.0000,0.0000,0.0000,0.0000,0
2026-04-17,12:54:36,16499,1,0.0000,-0.0006,-0.0096,0.2824,2.4293,0,1.0000,0,1,-0.6209,0.1040,174.5143,39.8934,170.5400,0.000,0.904,0.897,0.0000,0.0000,0.0000,0.0000,0.0000,0.0000,0
2026-04-17,12:54:36,16532,1,0.0000,0.0142,-0.0118,0.3472,2.4293,0,1.0000,0,1,-0.6247,0.0087,174.7229,32.4903,170.5497,0.000,0.888,0.895,0.0000,0.0000,0.0000,0.0000,0.0000,0.0000,0
2026-04-17,12:54:36,16567,1,0.0000,-0.0027,-0.0108,0.3186,2.4293,0,1.0000,0,1,-0.6654,-0.2366,175.3993,24.8456,170.6326,0.000,0.856,0.892,0.0000,0.0000,0.0000,0.0000,0.0000,0.0000,0
2026-04-17,12:54:36,16603,1,0.0000,0.0045,-0.0105,0.3097,2.4293,0,1.0000,0,0,-0.6360,0.2433,175.8561,17.6279,170.5783,0.000,0.824,0.889,0.0000,0.0000,0.0000,0.0000,0.0000,0.0000,0
2026-04-17,12:54:36,16638,1,0.0000,0.0022,-0.0108,0.3183,2.4293,0,1.0000,0,0,-0.7018,-1.2559,176.1295,11.8064,170.6535,0.000,0.792,0.886,0.0000,0.0000,0.0000,0.0000,0.0000,0.0000,0
2026-04-17,12:54:36,16673,1,0.0000,-0.0088,-0.0093,0.2722,2.4293,0,1.0000,0,0,-0.6407,1.2562,176.2813,7.2985,170.6114,0.000,0.760,0.882,0.0000,0.0000,0.0000,0.0000,0.0000,0.0000,0
2026-04-17,12:54:36,16709,1,0.0000,-0.0041,-0.0096,0.2818,2.4293,0,1.0000,0,0,-0.7262,-2.3775,176.4186,5.3408,170.6541,0.000,0.728,0.879,0.0000,0.0000,0.0000,0.0000,0.0000,0.0000,0
2026-04-17,12:54:36,16744,1,0.0000,0.0007,-0.0105,0.3101,2.4293,0,1.0000,0,0,-0.6651,2.1398,176.5252,3.9988,170.6443,0.000,0.696,0.876,0.0000,0.0000,0.0000,0.0000,0.0000,0.0000,0
2026-04-17,12:54:36,16779,1,0.0000,0.0036,-0.0102,0.3009,2.4293,0,1.0000,0,0,-0.7233,-2.2642,176.6763,3.9213,170.6561,0.000,0.664,0.873,0.0000,0.0000,0.0000,0.0000,0.0000,0.0000,0
2026-04-17,12:54:36,16815,1,0.0000,-0.0088,-0.0096,0.2815,2.4293,0,1.0000,0,0,-0.7153,0.9994,176.5508,-1.3371,170.6604,0.000,0.632,0.870,0.0000,0.0000,0.0000,0.0000,0.0000,0.0000,0
2026-04-17,12:54:36,16850,1,0.0000,0.0024,-0.0112,0.3281,2.4293,0,1.0000,0,0,-0.7070,-0.6984,176.3282,-4.9912,170.6832,0.000,0.600,0.866,0.0000,0.0000,0.0000,0.0000,0.0000,0.0000,0
2026-04-17,12:54:36,16885,1,0.0000,-0.0037,-0.0106,0.3103,2.4293,0,1.0000,0,0,-0.7490,-0.4971,176.3675,-0.3343,170.6879,0.000,0.568,0.863,0.0000,0.0000,0.0000,0.0000,0.0000,0.0000,0
2026-04-17,12:54:36,16921,1,0.0000,-0.0006,-0.0092,0.2719,2.4293,0,1.0000,0,0,-0.7118,0.3901,162.2857,-299.2129,170.6807,0.000,0.536,0.860,0.0000,0.0000,0.0000,0.0000,0.0000,0.0000,0
2026-04-17,12:54:36,16956,1,0.0000,-0.0036,-0.0086,0.2532,2.4293,0,1.0000,0,0,-0.7499,-0.8732,154.4139,-250.9135,170.7129,0.000,0.504,0.857,0.0000,0.0000,0.0000,0.0000,0.0000,0.0000,0
2026-04-17,12:54:36,16991,1,0.0000,0.0024,-0.0092,0.2719,2.4293,0,1.0000,0,0,-0.7066,0.9968,152.7377,-115.1539,170.6871,0.000,0.472,0.854,0.0000,0.0000,0.0000,0.0000,0.0000,0.0000,0
2026-04-17,12:54:36,17026,1,0.0000,-0.0070,-0.0096,0.2818,2.4293,0,1.0000,0,0,-0.7473,-1.1883,154.1463,-8.2029,170.7319,0.000,0.440,0.850,0.0000,0.0000,0.0000,0.0000,0.0000,0.0000,0
2026-04-17,12:54:37,17061,1,0.0000,-0.0068,-0.0096,0.2815,2.4293,0,1.0000,0,0,-0.7238,0.8374,156.7865,51.9466,170.6833,0.000,0.408,0.847,0.0000,0.0000,0.0000,0.0000,0.0000,0.0000,0
2026-04-17,12:54:37,17097,1,0.0000,0.0022,-0.0102,0.2995,2.4293,0,1.0000,0,0,-0.7327,-0.1658,159.8362,80.7819,170.7066,0.000,0.376,0.844,0.0000,0.0000,0.0000,0.0000,0.0000,0.0000,0
2026-04-17,12:54:37,17132,1,0.0000,-0.0017,-0.0099,0.2913,2.4293,0,1.0000,0,0,-0.7469,0.2371,162.7654,88.0293,170.6843,0.000,0.344,0.841,0.0000,0.0000,0.0000,0.0000,0.0000,0.0000,0
2026-04-17,12:54:37,17167,1,0.0000,-0.0045,-0.0099,0.2913,2.4293,0,1.0000,0,0,-0.7349,-0.0898,165.2597,81.5733,170.6610,0.000,0.312,0.838,0.0000,0.0000,0.0000,0.0000,0.0000,0.0000,0
2026-04-17,12:54:37,17202,1,0.0000,0.0031,-0.0105,0.3100,2.4293,0,1.0000,0,0,-0.7439,0.1384,167.4963,75.0922,170.6749,0.000,0.280,0.834,0.0000,0.0000,0.0000,0.0000,0.0000,0.0000,0
2026-04-17,12:54:37,17237,1,0.0000,-0.0025,-0.0108,0.3183,2.4293,0,1.0000,0,0,-0.7337,-0.2815,169.3666,64.2682,170.6373,0.000,0.248,0.831,0.0000,0.0000,0.0000,0.0000,0.0000,0.0000,0
2026-04-17,12:54:37,17272,1,0.0000,-0.0004,-0.0093,0.2722,2.4293,0,1.0000,0,0,-0.7551,-0.8902,170.9129,53.5858,170.6655,0.000,0.216,0.828,0.0000,0.0000,0.0000,0.0000,0.0000,0.0000,0
2026-04-17,12:54:37,17309,1,0.0000,-0.0035,-0.0102,0.3005,2.4293,0,1.0000,0,0,-0.7454,-0.2117,171.3991,40.7770,170.6641,0.000,0.192,0.826,0.0000,0.0000,0.0000,0.0000,0.0000,0.0000,0
2026-04-17,12:54:37,17345,1,0.0000,-0.0097,-0.0089,0.2627,2.4293,0,1.0000,0,0,-0.7706,-0.6680,172.5023,36.7883,170.6904,0.000,0.160,0.822,0.0000,0.0000,0.0000,0.0000,0.0000,0.0000,0
2026-04-17,12:54:37,17380,1,0.0000,0.0071,-0.0118,0.3469,2.4293,0,1.0000,0,0,-0.7298,1.2303,173.4775,32.7779,170.6700,0.000,0.128,0.819,0.0000,0.0000,0.0000,0.0000,0.0000,0.0000,0
2026-04-17,12:54:37,17416,1,0.0000,0.0026,-0.0105,0.3091,2.4293,0,1.0000,0,0,-0.7517,-0.6754,174.0396,22.0236,170.6756,0.000,0.096,0.816,0.0000,0.0000,0.0000,0.0000,0.0000,0.0000,0
2026-04-17,12:54:37,17451,1,0.0000,-0.0118,-0.0089,0.2624,2.4293,0,1.0000,0,0,-0.7465,-0.0813,174.3538,14.1132,170.6873,0.000,0.064,0.813,0.0000,0.0000,0.0000,0.0000,0.0000,0.0000,0
2026-04-17,12:54:37,17486,1,0.0000,-0.0051,-0.0099,0.2913,2.4293,0,1.0000,0,0,-0.7405,-0.0392,174.7189,12.6524,170.6777,0.000,0.032,0.810,0.0000,0.0000,0.0000,0.0000,0.0000,0.0000,0
2026-04-17,12:54:37,17522,1,0.0000,-0.0012,-0.0099,0.2903,2.4293,0,1.0000,0,0,-0.7585,-0.5479,174.9363,8.3311,170.6950,0.000,0.000,0.806,0.0000,0.0000,0.0000,0.0000,0.0000,0.0000,0
2026-04-17,12:54:37,17557,1,0.0000,-0.0001,-0.0106,0.3107,2.4293,0,1.0000,0,0,-0.7355,0.2037,165.7838,-248.1769,170.6868,0.000,0.000,0.803,0.0000,0.0000,0.0000,0.0000,0.0000,0.0000,0
2026-04-17,12:54:37,17592,1,0.0000,0.0075,-0.0102,0.3009,2.4293,0,1.0000,0,0,-0.7450,0.0677,150.8654,-364.2536,170.6876,0.000,0.000,0.800,0.0000,0.0000,0.0000,0.0000,0.0000,0.0000,0
2026-04-17,12:54:37,17628,1,0.0000,-0.0001,-0.0102,0.3005,2.4293,0,1.0000,0,0,-0.7196,1.2153,146.1516,-212.3563,170.6610,0.000,0.000,0.797,0.0000,0.0000,0.0000,0.0000,0.0000,0.0000,0
2026-04-17,12:54:37,17663,1,0.0000,-0.0018,-0.0089,0.2624,2.4293,0,1.0000,0,0,-0.7471,-0.9175,146.7323,-56.7795,170.6927,0.000,0.000,0.794,0.0000,0.0000,0.0000,0.0000,0.0000,0.0000,0
2026-04-17,12:54:37,17698,1,0.0000,0.0003,-0.0105,0.3094,2.4293,0,1.0000,0,0,-0.7339,0.5595,149.9141,47.1850,170.6837,0.000,0.000,0.790,0.0000,0.0000,0.0000,0.0000,0.0000,0.0000,0
2026-04-17,12:54:37,17734,1,0.0000,-0.0077,-0.0093,0.2722,2.4293,0,1.0000,0,0,-0.7574,-0.6007,153.7932,96.8740,170.6942,0.000,0.000,0.787,0.0000,0.0000,0.0000,0.0000,0.0000,0.0000,0
2026-04-17,12:54:37,17769,1,0.0000,0.0075,-0.0105,0.3087,2.4293,0,1.0000,0,0,-0.7503,0.8989,157.8143,116.1993,170.6975,0.000,0.000,0.784,0.0000,0.0000,0.0000,0.0000,0.0000,0.0000,0
2026-04-17,12:54:37,17804,1,0.0000,0.0086,-0.0109,0.3193,2.4293,0,1.0000,0,0,-0.7519,0.5338,161.4037,115.0652,170.7015,0.000,0.000,0.781,0.0000,0.0000,0.0000,0.0000,0.0000,0.0000,0
2026-04-17,12:54:37,17839,1,0.0000,-0.0058,-0.0096,0.2811,2.4293,0,1.0000,0,0,-0.7684,0.1722,164.5376,105.6355,170.6959,0.000,0.000,0.778,0.0000,0.0000,0.0000,0.0000,0.0000,0.0000,0
2026-04-17,12:54:37,17874,1,0.0000,0.0013,-0.0093,0.2723,2.4293,0,1.0000,0,0,-0.7495,0.3868,167.2274,91.0826,170.7003,0.000,0.000,0.774,0.0000,0.0000,0.0000,0.0000,0.0000,0.0000,0
2026-04-17,12:54:37,17909,1,0.0000,-0.0062,-0.0102,0.2999,2.4293,0,1.0000,0,0,-0.7679,0.1559,169.2203,72.2616,170.7148,0.000,0.000,0.771,0.0000,0.0000,0.0000,0.0000,0.0000,0.0000,0
2026-04-17,12:54:37,17944,1,0.0000,-0.0049,-0.0096,0.2815,2.4293,0,1.0000,0,0,-0.7506,0.3144,170.7560,56.1893,170.7024,0.000,0.000,0.768,0.0000,0.0000,0.0000,0.0000,0.0000,0.0000,0
2026-04-17,12:54:37,17979,1,0.0000,0.0055,-0.0109,0.3193,2.4293,0,1.0000,0,0,-0.7665,-0.1479,164.8422,-109.7906,170.7080,0.000,0.000,0.765,0.0000,0.0000,0.0000,0.0000,0.0000,0.0000,0
2026-04-17,12:54:37,18014,1,0.0000,-0.0049,-0.0099,0.2910,2.4293,0,1.0000,0,0,-0.7352,1.4211,161.9066,-90.8189,170.7266,0.000,0.000,0.762,0.0000,0.0000,0.0000,0.0000,0.0000,0.0000,0
2026-04-17,12:54:38,18049,1,0.0000,0.0047,-0.0099,0.2907,2.4293,0,1.0000,0,0,-0.7112,0.5035,161.8652,-30.1902,170.7316,0.000,0.000,0.758,0.0000,0.0000,0.0000,0.0000,0.0000,0.0000,0
2026-04-17,12:54:38,18090,1,0.0000,0.0048,-0.0093,0.2722,2.4293,0,1.0000,0,0,-0.7035,0.1362,162.4107,-7.6580,170.7358,0.000,0.000,0.756,0.0000,0.0000,0.0000,0.0000,0.0000,0.0000,0
2026-04-17,12:54:38,18125,1,0.0000,0.0010,-0.0089,0.2630,2.4293,0,1.0000,0,0,-0.7342,-0.7699,164.0558,31.7055,170.7389,0.000,0.000,0.753,0.0000,0.0000,0.0000,0.0000,0.0000,0.0000,0
2026-04-17,12:54:38,18161,1,0.0000,0.0072,-0.0102,0.2992,2.4293,0,1.0000,0,0,-0.7435,-0.0057,165.9138,48.9646,170.7554,0.000,0.000,0.750,0.0000,0.0000,0.0000,0.0000,0.0000,0.0000,0
2026-04-17,12:54:38,18196,1,0.0000,-0.0113,-0.0086,0.2523,2.4293,0,1.0000,0,0,-0.7393,-0.3511,167.5665,52.0157,170.7373,0.000,0.000,0.746,0.0000,0.0000,0.0000,0.0000,0.0000,0.0000,0
2026-04-17,12:54:38,18231,1,0.0000,-0.0027,-0.0103,0.3015,2.4293,0,1.0000,0,0,-0.7616,-0.5249,169.2785,53.0947,170.7320,0.000,0.000,0.743,0.0000,0.0000,0.0000,0.0000,0.0000,0.0000,0
2026-04-17,12:54:38,18266,1,0.0000,-0.0059,-0.0096,0.2815,2.4293,0,1.0000,0,0,-0.7497,0.0010,164.4168,-133.3690,170.7168,0.000,0.000,0.740,0.0000,0.0000,0.0000,0.0000,0.0000,0.0000,0
2026-04-17,12:54:38,18301,1,0.0000,0.0028,-0.0092,0.2713,2.4293,0,1.0000,0,0,-0.7498,-0.3003,148.7213,-344.6964,170.7287,0.000,0.000,0.737,0.0000,0.0000,0.0000,0.0000,0.0000,0.0000,0
2026-04-17,12:54:38,18337,1,0.0000,-0.0045,-0.0092,0.2716,2.4293,0,1.0000,0,0,-0.7441,0.3033,143.8318,-205.0889,170.7072,0.000,0.000,0.734,0.0000,0.0000,0.0000,0.0000,0.0000,0.0000,0
2026-04-17,12:54:38,18373,1,0.0000,0.0044,-0.0102,0.3002,2.4293,0,1.0000,0,0,-0.7359,0.1590,144.5737,-51.8464,170.7145,0.000,0.000,0.730,0.0000,0.0000,0.0000,0.0000,0.0000,0.0000,0
2026-04-17,12:54:38,18408,1,0.0000,-0.0054,-0.0102,0.3002,2.4293,0,1.0000,0,0,-0.7429,-0.1922,141.3002,-134.5244,170.7153,0.000,0.000,0.727,0.0000,0.0000,0.0000,0.0000,0.0000,0.0000,0
2026-04-17,12:54:38,18444,1,0.0000,-0.0038,-0.0093,0.2722,2.4293,0,1.0000,0,0,-0.7309,-0.1555,132.8628,-196.7695,170.7071,0.000,0.000,0.724,0.0000,0.0000,0.0000,0.0000,0.0000,0.0000,0
2026-04-17,12:54:38,18479,1,0.0000,0.0008,-0.0099,0.2903,2.4293,0,1.0000,0,0,-0.7258,0.5271,132.9336,-57.3618,170.7202,0.000,0.000,0.721,0.0000,0.0000,0.0000,0.0000,0.0000,0.0000,0
2026-04-17,12:54:38,18514,1,0.0000,0.0048,-0.0105,0.3094,2.4293,0,1.0000,0,0,-0.7322,-0.2695,137.0867,69.4331,170.7276,0.000,0.000,0.718,0.0000,0.0000,0.0000,0.0000,0.0000,0.0000,0
2026-04-17,12:54:38,18549,1,0.0000,-0.0071,-0.0096,0.2821,2.4293,0,1.0000,0,0,-0.7148,0.6434,142.7303,142.9350,170.7298,0.000,0.000,0.714,0.0000,0.0000,0.0000,0.0000,0.0000,0.0000,0
2026-04-17,12:54:38,18584,1,0.0000,-0.0029,-0.0099,0.2907,2.4293,0,1.0000,0,0,-0.7062,0.1399,148.5075,168.3833,170.7170,0.000,0.000,0.711,0.0000,0.0000,0.0000,0.0000,0.0000,0.0000,0
2026-04-17,12:54:38,18619,1,0.0000,-0.0056,-0.0092,0.2719,2.4293,0,1.0000,0,0,-0.7277,-0.8272,153.9385,169.6919,170.7263,0.000,0.000,0.708,0.0000,0.0000,0.0000,0.0000,0.0000,0.0000,0
2026-04-17,12:54:38,18654,1,0.0000,0.0028,-0.0108,0.3189,2.4293,0,1.0000,0,0,-0.6994,0.9362,158.7251,158.6695,170.7290,0.000,0.000,0.705,0.0000,0.0000,0.0000,0.0000,0.0000,0.0000,0
2026-04-17,12:54:38,18689,1,0.0000,-0.0052,-0.0102,0.3002,2.4293,0,1.0000,0,0,-0.7211,-0.1378,158.3159,18.6739,170.7261,0.000,0.000,0.702,0.0000,0.0000,0.0000,0.0000,0.0000,0.0000,0
2026-04-17,12:54:38,18724,1,0.0000,0.0086,-0.0109,0.3193,2.4293,0,1.0000,0,0,-0.7222,-0.1307,155.7980,-35.3371,170.7284,0.000,0.000,0.698,0.0000,0.0000,0.0000,0.0000,0.0000,0.0000,0
2026-04-17,12:54:38,18760,1,0.0000,-0.0069,-0.0096,0.2815,2.4293,0,1.0000,0,0,-0.7419,-0.5496,156.3936,3.3225,170.7489,0.000,0.000,0.695,0.0000,0.0000,0.0000,0.0000,0.0000,0.0000,0
2026-04-17,12:54:38,18795,1,0.0000,0.0089,-0.0108,0.3179,2.4293,0,1.0000,0,0,-0.7241,0.2325,158.4925,46.0788,170.7497,0.000,0.000,0.692,0.0000,0.0000,0.0000,0.0000,0.0000,0.0000,0
2026-04-17,12:54:38,18830,1,0.0000,0.0027,-0.0112,0.3285,2.4293,0,1.0000,0,0,-0.7354,0.1085,161.2248,72.6907,170.7543,0.000,0.000,0.689,0.0000,0.0000,0.0000,0.0000,0.0000,0.0000,0
2026-04-17,12:54:38,18863,1,0.0000,-0.0079,-0.0083,0.2437,2.4293,0,1.0000,0,0,-0.7314,0.1126,160.5856,51.5432,170.7587,0.000,0.000,0.687,0.0000,0.0000,0.0000,0.0000,0.0000,0.0000,0
2026-04-17,12:54:38,18898,1,0.0000,0.0074,-0.0112,0.3281,2.4293,0,1.0000,0,0,-0.7325,0.4898,159.9933,11.6650,170.7359,0.000,0.000,0.684,0.0000,0.0000,0.0000,0.0000,0.0000,0.0000,0
2026-04-17,12:54:38,18934,1,0.0000,-0.0038,-0.0099,0.2904,2.4293,0,1.0000,0,0,-0.7453,-0.4404,161.1162,29.0890,170.7289,0.000,0.000,0.681,0.0000,0.0000,0.0000,0.0000,0.0000,0.0000,0
2026-04-17,12:54:38,18970,1,0.0000,-0.0009,-0.0105,0.3097,2.4293,0,1.0000,0,0,-0.7484,-0.4228,162.9198,48.2913,170.7276,0.000,0.000,0.678,0.0000,0.0000,0.0000,0.0000,0.0000,0.0000,0
2026-04-17,12:54:38,19005,1,0.0000,-0.0028,-0.0102,0.3005,2.4293,0,1.0000,0,0,-0.7370,0.3381,165.1927,64.6762,170.7418,0.000,0.000,0.674,0.0000,0.0000,0.0000,0.0000,0.0000,0.0000,0
2026-04-17,12:54:39,19040,1,0.0000,0.0193,-0.0115,0.3381,2.4293,0,1.0000,0,0,-0.7455,-0.3410,167.4053,68.0179,170.7356,0.000,0.000,0.671,0.0000,0.0000,0.0000,0.0000,0.0000,0.0000,0
2026-04-17,12:54:39,19075,1,0.0000,0.0059,-0.0112,0.3292,2.4293,0,1.0000,0,0,-0.7500,-0.1748,169.4030,65.0301,170.7477,0.000,0.000,0.668,0.0000,0.0000,0.0000,0.0000,0.0000,0.0000,0
2026-04-17,12:54:39,19110,1,0.0000,0.0008,-0.0099,0.2907,2.4293,0,1.0000,0,0,-0.7411,0.5749,171.0167,55.2412,170.7435,0.000,0.000,0.665,0.0000,0.0000,0.0000,0.0000,0.0000,0.0000,0
2026-04-17,12:54:39,19145,1,0.0000,-0.0079,-0.0099,0.2904,2.4293,0,1.0000,0,0,-0.7418,0.2972,172.1581,42.6035,170.7550,0.000,0.000,0.662,0.0000,0.0000,0.0000,0.0000,0.0000,0.0000,0
2026-04-17,12:54:39,19180,1,0.0000,-0.0121,-0.0099,0.2913,2.4293,0,1.0000,0,0,-0.7478,-0.4559,173.0243,32.8127,170.7472,0.000,0.000,0.658,0.0000,0.0000,0.0000,0.0000,0.0000,0.0000,0
2026-04-17,12:54:39,19215,1,0.0000,-0.0040,-0.0086,0.2529,2.4293,0,1.0000,0,0,-0.7186,1.1078,173.7571,25.6748,170.7394,0.000,0.000,0.655,0.0000,0.0000,0.0000,0.0000,0.0000,0.0000,0
2026-04-17,12:54:39,19250,1,0.0000,0.0030,-0.0099,0.2910,2.4293,0,1.0000,0,0,-0.7366,-0.8890,174.2021,18.0098,170.7289,0.000,0.000,0.652,0.0000,0.0000,0.0000,0.0000,0.0000,0.0000,0
2026-04-17,12:54:39,19285,1,0.0000,0.0019,-0.0108,0.3189,2.4293,0,1.0000,0,0,-0.7267,0.3887,174.6283,14.9454,170.7267,0.000,0.000,0.649,0.0000,0.0000,0.0000,0.0000,0.0000,0.0000,0
2026-04-17,12:54:39,19320,1,0.0000,-0.0019,-0.0095,0.2805,2.4293,0,1.0000,0,0,-0.7135,0.2108,170.5845,-105.0122,170.7359,0.000,0.000,0.646,0.0000,0.0000,0.0000,0.0000,0.0000,0.0000,0
2026-04-17,12:54:39,19355,1,0.0000,-0.0024,-0.0109,0.3193,2.4293,0,1.0000,0,0,-0.7054,0.2743,157.3720,-300.9056,170.7178,0.000,0.000,0.642,0.0000,0.0000,0.0000,0.0000,0.0000,0.0000,0
2026-04-17,12:54:39,19390,1,0.0000,-0.0030,-0.0092,0.2719,2.4293,0,1.0000,0,0,-0.6953,0.1967,151.5994,-210.7245,170.7249,0.000,0.000,0.639,0.0000,0.0000,0.0000,0.0000,0.0000,0.0000,0
2026-04-17,12:54:39,19425,1,0.0000,-0.0001,-0.0108,0.3186,2.4293,0,1.0000,0,0,-0.7064,0.1526,143.9302,-229.9365,170.7122,0.000,0.000,0.636,0.0000,0.0000,0.0000,0.0000,0.0000,0.0000,0
2026-04-17,12:54:39,19460,1,0.0000,0.0002,-0.0106,0.3107,2.4293,0,1.0000,0,0,-0.7040,0.3723,140.2334,-171.2914,170.7213,0.000,0.000,0.633,0.0000,0.0000,0.0000,0.0000,0.0000,0.0000,0
2026-04-17,12:54:39,19495,1,0.0000,-0.0000,-0.0102,0.3005,2.4293,0,1.0000,0,0,-0.7128,-0.0867,124.3804,-372.9738,170.7107,0.000,0.000,0.630,0.0000,0.0000,0.0000,0.0000,0.0000,0.0000,0
2026-04-17,12:54:39,19530,1,0.0000,-0.0065,-0.0099,0.2907,2.4293,0,1.0000,0,0,-0.7186,-0.4421,120.5154,-193.6276,170.7231,0.000,0.000,0.626,0.0000,0.0000,0.0000,0.0000,0.0000,0.0000,0
2026-04-17,12:54:39,19566,1,0.0000,0.0086,-0.0106,0.3104,2.4293,0,1.0000,0,0,-0.7432,-1.1752,123.9653,9.3828,170.7139,0.000,0.000,0.623,0.0000,0.0000,0.0000,0.0000,0.0000,0.0000,0
2026-04-17,12:54:39,19601,1,0.0000,-0.0048,-0.0105,0.3094,2.4293,0,1.0000,0,0,-0.7444,-0.0306,130.4970,140.1775,170.7223,0.000,0.000,0.620,0.0000,0.0000,0.0000,0.0000,0.0000,0.0000,0
2026-04-17,12:54:39,19642,1,0.0000,0.0089,-0.0105,0.3094,2.4293,0,1.0000,0,0,-0.7531,0.0659,134.2565,149.1240,170.7312,0.000,0.000,0.618,0.0000,0.0000,0.0000,0.0000,0.0000,0.0000,0
2026-04-17,12:54:39,19678,1,0.0000,0.0004,-0.0105,0.3091,2.4293,0,1.0000,0,0,-0.7495,0.3644,141.7957,207.1161,170.7213,0.000,0.000,0.614,0.0000,0.0000,0.0000,0.0000,0.0000,0.0000,0
2026-04-17,12:54:39,19714,1,0.0000,0.0033,-0.0102,0.2999,2.4293,0,1.0000,0,0,-0.7298,0.4592,148.5996,208.6554,170.7266,0.000,0.000,0.611,0.0000,0.0000,0.0000,0.0000,0.0000,0.0000,0
2026-04-17,12:54:39,19749,1,0.0000,0.0014,-0.0099,0.2910,2.4293,0,1.0000,0,0,-0.7484,-0.4608,154.4325,191.5751,170.7198,0.000,0.000,0.608,0.0000,0.0000,0.0000,0.0000,0.0000,0.0000,0
2026-04-17,12:54:39,19785,1,0.0000,-0.0029,-0.0086,0.2535,2.4293,0,1.0000,0,0,-0.7430,0.2520,159.4070,168.8534,170.7093,0.000,0.000,0.605,0.0000,0.0000,0.0000,0.0000,0.0000,0.0000,0
2026-04-17,12:54:39,19820,1,0.0000,0.0078,-0.0105,0.3094,2.4293,0,1.0000,0,0,-0.7512,0.3877,163.4471,140.2935,170.7184,0.000,0.000,0.602,0.0000,0.0000,0.0000,0.0000,0.0000,0.0000,0
2026-04-17,12:54:39,19855,1,0.0000,0.0015,-0.0102,0.3009,2.4293,0,1.0000,0,0,-0.7561,0.4389,166.5615,112.3213,170.7003,0.000,0.000,0.598,0.0000,0.0000,0.0000,0.0000,0.0000,0.0000,0
2026-04-17,12:54:39,19890,1,0.0000,0.0067,-0.0105,0.3101,2.4293,0,1.0000,0,0,-0.7646,-0.5832,169.0687,90.6720,170.6914,0.000,0.000,0.595,0.0000,0.0000,0.0000,0.0000,0.0000,0.0000,0
2026-04-17,12:54:39,19925,1,0.0000,0.0060,-0.0105,0.3097,2.4293,0,1.0000,0,0,-0.7531,-0.0924,171.0285,71.8827,170.6918,0.000,0.000,0.592,0.0000,0.0000,0.0000,0.0000,0.0000,0.0000,0
2026-04-17,12:54:39,19960,1,0.0000,-0.0038,-0.0102,0.2996,2.4293,0,1.0000,0,0,-0.7414,0.5252,172.4525,53.1359,170.6961,0.000,0.000,0.589,0.0000,0.0000,0.0000,0.0000,0.0000,0.0000,0
2026-04-17,12:54:39,19995,1,0.0000,0.0013,-0.0102,0.2999,2.4293,0,1.0000,0,0,-0.7349,0.5269,173.4633,38.9159,170.6950,0.000,0.000,0.586,0.0000,0.0000,0.0000,0.0000,0.0000,0.0000,0
2026-04-17,12:54:39,20030,1,0.0000,0.0066,-0.0115,0.3370,2.4293,0,1.0000,0,0,-0.7418,-0.3924,170.8778,-66.7333,170.7061,0.000,0.000,0.582,0.0000,0.0000,0.0000,0.0000,0.0000,0.0000,0
2026-04-17,12:54:40,20065,1,0.0000,-0.0052,-0.0095,0.2802,2.4293,0,1.0000,0,0,-0.7546,0.3629,165.1702,-128.2623,170.7066,0.000,0.000,0.579,0.0000,0.0000,0.0000,0.0000,0.0000,0.0000,0
2026-04-17,12:54:40,20100,1,0.0000,0.0052,-0.0095,0.2808,2.4293,0,1.0000,0,0,-0.7388,0.3616,163.5263,-74.3255,170.7089,0.000,0.000,0.576,0.0000,0.0000,0.0000,0.0000,0.0000,0.0000,0
2026-04-17,12:54:40,20135,1,0.0000,0.0001,-0.0108,0.3180,2.4293,0,1.0000,0,0,-0.7337,0.3271,163.9283,-15.6435,170.7047,0.000,0.000,0.573,0.0000,0.0000,0.0000,0.0000,0.0000,0.0000,0
2026-04-17,12:54:40,20170,1,0.0000,0.0050,-0.0105,0.3094,2.4293,0,1.0000,0,0,-0.7156,0.5065,162.0289,-70.7250,170.7139,0.000,0.000,0.570,0.0000,0.0000,0.0000,0.0000,0.0000,0.0000,0
2026-04-17,12:54:40,20205,1,0.0000,-0.0028,-0.0096,0.2821,2.4293,0,1.0000,0,0,-0.7167,0.3926,157.3015,-109.5115,170.7126,0.000,0.000,0.566,0.0000,0.0000,0.0000,0.0000,0.0000,0.0000,0
2026-04-17,12:54:40,20240,1,0.0000,0.0122,-0.0102,0.3002,2.4293,0,1.0000,0,0,-0.7196,-0.2545,156.7142,-45.1195,170.7153,0.000,0.000,0.563,0.0000,0.0000,0.0000,0.0000,0.0000,0.0000,0
2026-04-17,12:54:40,20275,1,0.0000,0.0082,-0.0108,0.3189,2.4293,0,1.0000,0,0,-0.6988,0.2267,158.3429,19.9101,170.7182,0.000,0.000,0.560,0.0000,0.0000,0.0000,0.0000,0.0000,0.0000,0
2026-04-17,12:54:40,20310,1,0.0000,-0.0009,-0.0102,0.2999,2.4293,0,1.0000,0,0,-0.7015,0.1009,159.9903,27.9058,170.7148,0.000,0.000,0.557,0.0000,0.0000,0.0000,0.0000,0.0000,0.0000,0
2026-04-17,12:54:40,20345,1,0.0000,-0.0079,-0.0089,0.2618,2.4293,0,1.0000,0,0,-0.7195,-0.2279,144.4773,-317.1671,170.7187,0.000,0.000,0.554,0.0000,0.0000,0.0000,0.0000,0.0000,0.0000,0
2026-04-17,12:54:40,20380,1,0.0000,-0.0102,-0.0095,0.2808,2.4293,0,1.0000,0,0,-0.7351,-0.0058,120.8033,-597.3454,170.7128,0.000,0.000,0.550,0.0000,0.0000,0.0000,0.0000,0.0000,0.0000,0
2026-04-17,12:54:40,20414,1,0.0000,-0.0057,-0.0096,0.2821,2.4293,0,1.0000,0,0,-0.7301,0.0604,116.7053,-494.0709,170.7181,0.000,0.000,0.549,0.0000,0.0000,0.0000,0.0000,0.0000,0.0000,0
2026-04-17,12:54:40,20449,1,0.0000,0.0065,-0.0112,0.3281,2.4293,0,1.0000,0,0,-0.7398,-0.4314,110.1622,-283.4406,170.7168,0.000,0.000,0.546,0.0000,0.0000,0.0000,0.0000,0.0000,0.0000,0
2026-04-17,12:54:40,20484,1,0.0000,-0.0085,-0.0096,0.2821,2.4293,0,1.0000,0,0,-0.7279,0.6291,113.3541,-23.6798,170.7090,0.000,0.000,0.542,0.0000,0.0000,0.0000,0.0000,0.0000,0.0000,0
2026-04-17,12:54:40,20519,1,0.0000,0.0035,-0.0115,0.3374,2.4293,0,1.0000,0,0,-0.7334,0.2269,120.8511,149.0476,170.7192,0.000,0.000,0.539,0.0000,0.0000,0.0000,0.0000,0.0000,0.0000,0
2026-04-17,12:54:40,20554,1,0.0000,-0.0166,-0.0093,0.2722,2.4293,0,1.0000,0,0,-0.7236,0.5227,129.6559,232.9246,170.7273,0.000,0.000,0.536,0.0000,0.0000,0.0000,0.0000,0.0000,0.0000,0
2026-04-17,12:54:40,20590,1,0.0000,-0.0016,-0.0099,0.2910,2.4293,0,1.0000,0,0,-0.7199,-0.0575,138.2077,253.5876,170.7180,0.000,0.000,0.533,0.0000,0.0000,0.0000,0.0000,0.0000,0.0000,0
2026-04-17,12:54:40,20625,1,0.0000,-0.0037,-0.0093,0.2722,2.4293,0,1.0000,0,0,-0.7480,-0.8806,143.7436,176.6512,170.7205,0.000,0.000,0.530,0.0000,0.0000,0.0000,0.0000,0.0000,0.0000,0
2026-04-17,12:54:40,20660,1,0.0000,-0.0037,-0.0096,0.2815,2.4293,0,1.0000,0,0,-0.7359,0.4193,143.1152,60.8105,170.7265,0.000,0.000,0.526,0.0000,0.0000,0.0000,0.0000,0.0000,0.0000,0
2026-04-17,12:54:40,20696,1,0.0000,-0.0029,-0.0099,0.2910,2.4293,0,1.0000,0,0,-0.7528,-0.1995,145.7823,80.3680,170.7319,0.000,0.000,0.523,0.0000,0.0000,0.0000,0.0000,0.0000,0.0000,0
2026-04-17,12:54:40,20731,1,0.0000,0.0050,-0.0111,0.3278,2.4293,0,1.0000,0,0,-0.7613,-0.1181,149.7493,110.6769,170.7435,0.000,0.000,0.520,0.0000,0.0000,0.0000,0.0000,0.0000,0.0000,0
2026-04-17,12:54:40,20766,1,0.0000,-0.0060,-0.0093,0.2722,2.4293,0,1.0000,0,0,-0.7505,0.3401,153.9755,125.9499,170.7549,0.000,0.000,0.517,0.0000,0.0000,0.0000,0.0000,0.0000,0.0000,0
2026-04-17,12:54:40,20802,1,0.0000,-0.0039,-0.0099,0.2910,2.4293,0,1.0000,0,0,-0.7594,0.0621,158.1334,129.3437,170.7328,0.000,0.000,0.514,0.0000,0.0000,0.0000,0.0000,0.0000,0.0000,0
2026-04-17,12:54:40,20837,1,0.0000,-0.0072,-0.0092,0.2713,2.4293,0,1.0000,0,0,-0.7371,1.1801,151.7041,-104.1200,170.7316,0.000,0.000,0.510,0.0000,0.0000,0.0000,0.0000,0.0000,0.0000,0
2026-04-17,12:54:40,20872,1,0.0000,0.0099,-0.0118,0.3462,2.4293,0,1.0000,0,0,-0.7268,0.7356,148.6915,-86.2129,170.7231,0.000,0.000,0.507,0.0000,0.0000,0.0000,0.0000,0.0000,0.0000,0
2026-04-17,12:54:40,20908,1,0.0000,-0.0040,-0.0099,0.2910,2.4293,0,1.0000,0,0,-0.7364,-0.4452,149.9904,0.6902,170.7164,0.000,0.000,0.504,0.0000,0.0000,0.0000,0.0000,0.0000,0.0000,0
2026-04-17,12:54:40,20944,1,0.0000,-0.0081,-0.0099,0.2904,2.4293,0,1.0000,0,0,-0.7323,0.0209,152.7986,58.3132,170.7121,0.000,0.000,0.501,0.0000,0.0000,0.0000,0.0000,0.0000,0.0000,0
2026-04-17,12:54:40,20980,1,0.0000,-0.0098,-0.0086,0.2535,2.4293,0,1.0000,0,0,-0.7244,0.6215,156.3001,93.4248,170.7145,0.000,0.000,0.498,0.0000,0.0000,0.0000,0.0000,0.0000,0.0000,0
2026-04-17,12:54:40,21015,1,0.0000,-0.0040,-0.0102,0.2993,2.4293,0,1.0000,0,0,-0.7368,-0.7839,159.8245,103.9972,170.7215,0.000,0.000,0.494,0.0000,0.0000,0.0000,0.0000,0.0000,0.0000,0
2026-04-17,12:54:41,21050,1,0.0000,-0.0069,-0.0099,0.2907,2.4293,0,1.0000,0,0,-0.7600,-0.5891,162.9989,101.8518,170.7117,0.000,0.000,0.491,0.0000,0.0000,0.0000,0.0000,0.0000,0.0000,0
2026-04-17,12:54:41,21085,1,0.0000,0.0169,-0.0118,0.3476,2.4293,0,1.0000,0,0,-0.7629,-0.0489,165.8718,93.7729,170.7093,0.000,0.000,0.488,0.0000,0.0000,0.0000,0.0000,0.0000,0.0000,0
