Date,Time,Timestamp_ms,Kite_ID,Commanded_Vel_rps,Actual_Vel_rps,Torque_Nm,Tension_N,Line_Length_m,Target_Enabled,Target_Length_m,Remote_Joy,Remote_Active,Pitch_deg,Pitch_Vel_dps,Yaw_deg,Yaw_Vel_dps,Roll_deg,Dive_Conf,AWW_Conf,AF_Conf,Kite_Pitch_deg,Kite_Roll_deg,Kite_Yaw_deg,Kite_Gyro_X,Kite_Gyro_Y,Kite_Gyro_Z,Kite_IMU_Battery
2026-04-17,12:58:44,0,1,-7.9840,-1.9522,0.0792,2.3279,1.3633,0,1.0000,-998,1,10.2844,-8.8914,3.7180,-7.6148,169.3144,0.000,0.000,0.528,0.0000,0.0000,0.0000,0.0000,0.0000,0.0000,0
2026-04-17,12:58:44,1,1,-7.9840,-2.1414,0.0649,1.9082,1.3813,0,1.0000,-998,1,10.4007,-0.2378,3.4586,-7.6087,169.5586,0.000,0.000,0.552,0.0000,0.0000,0.0000,0.0000,0.0000,0.0000,0
2026-04-17,12:58:44,2,1,-7.9840,-2.2660,0.0645,1.8970,1.4000,0,1.0000,-998,1,10.8503,5.0199,3.1053,-7.5277,169.6882,0.000,0.000,0.576,0.0000,0.0000,0.0000,0.0000,0.0000,0.0000,0
2026-04-17,12:58:44,3,1,-7.9840,-2.0893,0.0885,2.6039,1.4206,0,1.0000,-998,1,10.3728,-4.9229,2.9907,-6.0079,169.7214,0.000,0.000,0.600,0.0000,0.0000,0.0000,0.0000,0.0000,0.0000,0
2026-04-17,12:58:44,3,1,-7.9840,-2.1311,0.0778,2.2868,1.4373,0,1.0000,-998,1,10.4841,0.2550,2.9694,-4.2899,169.8905,0.000,0.000,0.624,0.0000,0.0000,0.0000,0.0000,0.0000,0.0000,0
2026-04-17,12:58:44,4,1,-7.9840,-2.2382,0.0611,1.7972,1.4564,0,1.0000,-998,1,10.9213,6.3642,2.8994,-3.5122,170.0625,0.000,0.000,0.648,0.0000,0.0000,0.0000,0.0000,0.0000,0.0000,0
2026-04-17,12:58:44,4,1,-7.9840,-2.3182,0.0971,2.8563,1.4764,0,1.0000,-998,1,10.7884,-0.7435,2.6588,-4.3298,170.1999,0.000,0.000,0.672,0.0000,0.0000,0.0000,0.0000,0.0000,0.0000,0
2026-04-17,12:58:44,6,1,-7.9840,-2.3711,0.1124,3.3055,1.4934,0,1.0000,-998,1,10.3797,-5.8253,2.8076,-1.6163,170.2934,0.000,0.000,0.696,0.0000,0.0000,0.0000,0.0000,0.0000,0.0000,0
2026-04-17,12:58:44,7,1,-7.9840,-2.4095,0.1067,3.1387,1.5146,0,1.0000,-998,1,10.9769,6.8759,3.0290,0.5407,170.3560,0.000,0.000,0.720,0.0000,0.0000,0.0000,0.0000,0.0000,0.0000,0
2026-04-17,12:58:44,8,1,-7.9840,-2.5501,0.0940,2.7639,1.5359,0,1.0000,-998,1,10.8272,-0.2155,3.0328,0.3869,170.5352,0.000,0.000,0.744,0.0000,0.0000,0.0000,0.0000,0.0000,0.0000,0
2026-04-17,12:58:44,9,1,-7.9840,-2.7474,0.0827,2.4313,1.5595,0,1.0000,-998,1,10.4026,-6.2514,2.9880,-0.1338,170.7790,0.000,0.000,0.768,0.0000,0.0000,0.0000,0.0000,0.0000,0.0000,0
2026-04-17,12:58:44,9,1,-7.9840,-2.6360,0.0825,2.4251,1.5823,0,1.0000,-998,1,10.2685,-4.1056,2.7692,-1.9828,170.9859,0.000,0.000,0.792,0.0000,0.0000,0.0000,0.0000,0.0000,0.0000,0
2026-04-17,12:58:44,10,1,-7.9840,-2.9111,0.1109,3.2619,1.6048,0,1.0000,-998,1,10.0155,-5.7730,2.7711,-1.3868,170.9632,0.000,0.000,0.816,0.0000,0.0000,0.0000,0.0000,0.0000,0.0000,0
2026-04-17,12:58:44,10,1,-7.9840,-2.8627,0.0847,2.4922,1.6283,0,1.0000,-998,1,10.0971,-0.8016,2.8976,-0.1045,171.0203,0.000,0.000,0.840,0.0000,0.0000,0.0000,0.0000,0.0000,0.0000,0
2026-04-17,12:58:44,11,1,-7.9840,-2.7939,0.0745,2.1911,1.6548,0,1.0000,-998,1,10.3840,3.0918,2.4475,-3.3603,171.0343,0.000,0.000,0.864,0.0000,0.0000,0.0000,0.0000,0.0000,0.0000,0
2026-04-17,12:58:44,12,1,-7.9840,-2.7138,0.1150,3.3810,1.6806,0,1.0000,-998,1,9.8499,-6.7323,2.2613,-3.6700,171.0089,0.000,0.000,0.888,0.0000,0.0000,0.0000,0.0000,0.0000,0.0000,0
2026-04-17,12:58:44,13,1,-7.9840,-2.6400,0.1011,2.9725,1.7045,0,1.0000,-998,1,9.6594,-4.1366,1.9578,-5.0213,171.1077,0.000,0.000,0.912,0.0000,0.0000,0.0000,0.0000,0.0000,0.0000,0
2026-04-17,12:58:44,13,1,-7.9840,-2.9039,0.0848,2.4947,1.7261,0,1.0000,-998,1,10.1740,6.0126,1.3613,-8.4229,171.1763,0.000,0.000,0.936,0.0000,0.0000,0.0000,0.0000,0.0000,0.0000,0
2026-04-17,12:58:44,14,1,-7.9840,-2.6867,0.1000,2.9415,1.7505,0,1.0000,-998,1,9.9960,-0.7159,0.9795,-8.6818,171.3994,0.000,0.000,0.960,0.0000,0.0000,0.0000,0.0000,0.0000,0.0000,0
2026-04-17,12:58:44,15,1,-7.9840,-2.6391,0.1026,3.0186,1.7725,0,1.0000,-998,1,9.3880,-9.1354,1.2016,-3.8796,171.3893,0.000,0.000,0.984,0.0000,0.0000,0.0000,0.0000,0.0000,0.0000,0
2026-04-17,12:58:44,16,1,-7.9840,-2.6791,0.0752,2.2131,1.7957,0,1.0000,-998,1,10.0574,7.3772,1.5109,-0.4094,171.4399,0.000,0.000,1.000,0.0000,0.0000,0.0000,0.0000,0.0000,0.0000,0
2026-04-17,12:58:44,17,1,-7.9840,-2.6083,0.0924,2.7162,1.8191,0,1.0000,-998,1,10.6390,9.7178,1.1938,-2.7750,171.4823,0.000,0.000,1.000,0.0000,0.0000,0.0000,0.0000,0.0000,0.0000,0
2026-04-17,12:58:44,48,1,-7.9840,-2.5984,0.0761,2.2394,1.8385,0,1.0000,-998,1,9.6985,-11.9118,1.0483,-3.1991,171.4514,0.000,0.000,1.000,0.0000,0.0000,0.0000,0.0000,0.0000,0.0000,0
2026-04-17,12:58:44,50,1,-7.9840,-2.6344,0.0724,2.1279,1.8612,0,1.0000,-998,1,9.5494,-5.6287,0.9268,-3.0937,171.6276,0.000,0.000,1.000,0.0000,0.0000,0.0000,0.0000,0.0000,0.0000,0
2026-04-17,12:58:44,51,1,-7.9840,-2.3712,0.0778,2.2887,1.8830,0,1.0000,-998,1,9.7535,-0.5582,0.9107,-2.1801,171.5506,0.000,0.000,1.000,0.0000,0.0000,0.0000,0.0000,0.0000,0.0000,0
2026-04-17,12:58:44,52,1,-7.9840,-2.6872,0.0744,2.1884,1.9036,0,1.0000,-998,1,9.2523,-7.2095,0.7598,-2.6191,171.4577,0.000,0.000,1.000,0.0000,0.0000,0.0000,0.0000,0.0000,0.0000,0
2026-04-17,12:58:44,53,1,-7.9840,-2.6588,0.0768,2.2595,1.9241,0,1.0000,-998,1,9.1054,-4.6411,0.5393,-3.7309,171.5340,0.000,0.000,1.000,0.0000,0.0000,0.0000,0.0000,0.0000,0.0000,0
2026-04-17,12:58:44,53,1,-7.9840,-2.6484,0.0885,2.6035,1.9440,0,1.0000,-998,1,9.1870,-0.5369,0.5722,-2.1834,171.6400,0.000,0.000,1.000,0.0000,0.0000,0.0000,0.0000,0.0000,0.0000,0
2026-04-17,12:58:44,54,1,-7.9840,-2.9036,0.0897,2.6397,1.9677,0,1.0000,-998,1,9.0726,-2.1129,0.3532,-3.2059,171.6862,0.000,0.000,1.000,0.0000,0.0000,0.0000,0.0000,0.0000,0.0000,0
2026-04-17,12:58:44,54,1,-7.9840,-2.8176,0.0919,2.7021,1.9917,0,1.0000,-998,1,8.9907,-2.1930,0.0659,-4.4947,171.7538,0.000,0.000,1.000,0.0000,0.0000,0.0000,0.0000,0.0000,0.0000,0
2026-04-17,12:58:44,55,1,-7.9840,-3.0787,0.0868,2.5519,2.0139,0,1.0000,-998,1,8.9038,-2.3405,-0.2423,-5.7895,171.7710,0.000,0.000,1.000,0.0000,0.0000,0.0000,0.0000,0.0000,0.0000,0
2026-04-17,12:58:44,56,1,-7.9840,-2.9204,0.1012,2.9756,2.0394,0,1.0000,-998,1,8.8931,-1.2927,-0.6821,-7.4885,171.7228,0.000,0.000,1.000,0.0000,0.0000,0.0000,0.0000,0.0000,0.0000,0
2026-04-17,12:58:44,57,1,-7.9840,-3.1147,0.1104,3.2471,2.0651,0,1.0000,-998,1,8.9236,0.2561,-0.9207,-6.9983,171.7800,0.000,0.000,1.000,0.0000,0.0000,0.0000,0.0000,0.0000,0.0000,0
2026-04-17,12:58:44,57,1,-7.9840,-3.3955,0.1051,3.0907,2.0905,0,1.0000,-998,1,8.9432,0.3678,-0.9907,-5.3543,171.8312,0.000,0.000,1.000,0.0000,0.0000,0.0000,0.0000,0.0000,0.0000,0
2026-04-17,12:58:44,58,1,-7.9840,-3.4123,0.1065,3.1319,2.1196,0,1.0000,-998,1,8.9335,-0.0388,-1.0377,-3.9496,171.8729,0.000,0.000,1.000,0.0000,0.0000,0.0000,0.0000,0.0000,0.0000,0
2026-04-17,12:58:44,59,1,-7.9840,-3.5377,0.1029,3.0259,2.1479,0,1.0000,-998,1,8.6800,-4.4213,-0.9848,-2.1834,171.8665,0.000,0.000,1.000,0.0000,0.0000,0.0000,0.0000,0.0000,0.0000,0
2026-04-17,12:58:44,60,1,-7.9840,-3.6691,0.0970,2.8523,2.1780,0,1.0000,-998,1,8.4757,-4.6161,-1.0207,-1.8039,171.8864,0.000,0.000,1.000,0.0000,0.0000,0.0000,0.0000,0.0000,0.0000,0
2026-04-17,12:58:44,61,1,-7.9840,-3.3505,0.1047,3.0800,2.2045,0,1.0000,-998,1,8.4323,-3.4436,-1.0630,-1.6572,171.8130,0.000,0.000,1.000,0.0000,0.0000,0.0000,0.0000,0.0000,0.0000,0
2026-04-17,12:58:44,62,1,-7.9840,-3.5065,0.1027,3.0220,2.2383,0,1.0000,-998,1,8.1402,-5.5128,-1.3174,-3.0205,171.6492,0.000,0.000,1.000,0.0000,0.0000,0.0000,0.0000,0.0000,0.0000,0
2026-04-17,12:58:44,63,1,-7.9840,-3.7741,0.1039,3.0568,2.2712,0,1.0000,-998,1,8.0857,-3.1983,-1.8037,-5.6628,171.6539,0.000,0.000,1.000,0.0000,0.0000,0.0000,0.0000,0.0000,0.0000,0
2026-04-17,12:58:44,64,1,-7.9840,-3.7944,0.1199,3.5255,2.3021,0,1.0000,-998,1,7.9498,-3.4252,-1.8580,-4.1397,171.7296,0.000,0.000,1.000,0.0000,0.0000,0.0000,0.0000,0.0000,0.0000,0
2026-04-17,12:58:44,64,1,-7.9840,-3.7168,0.1188,3.4942,2.3334,0,1.0000,-998,1,7.7775,-4.0655,-1.5403,-0.4390,171.7303,0.000,0.000,1.000,0.0000,0.0000,0.0000,0.0000,0.0000,0.0000,0
2026-04-17,12:58:44,65,1,-7.9840,-3.7147,0.0896,2.6341,2.3641,0,1.0000,-998,1,7.5442,-4.8251,-1.4083,0.6315,171.7839,0.000,0.000,1.000,0.0000,0.0000,0.0000,0.0000,0.0000,0.0000,0
2026-04-17,12:58:44,66,1,-7.9840,-3.3309,0.1082,3.1822,2.3911,0,1.0000,-998,1,7.3274,-6.3482,-1.6706,-1.8936,171.7001,0.000,0.000,1.000,0.0000,0.0000,0.0000,0.0000,0.0000,0.0000,0
2026-04-17,12:58:44,96,1,-7.9840,-3.4097,0.0977,2.8744,2.4198,0,1.0000,-998,1,6.7018,-11.3201,-1.7687,-2.0289,171.7030,0.048,0.000,1.000,0.0000,0.0000,0.0000,0.0000,0.0000,0.0000,0
2026-04-17,12:58:44,98,1,-7.9840,-3.4051,0.0857,2.5206,2.4487,0,1.0000,-998,1,6.7430,-3.7607,-1.9804,-3.2805,171.6964,0.096,0.000,1.000,0.0000,0.0000,0.0000,0.0000,0.0000,0.0000,0
2026-04-17,12:58:44,99,1,-7.9840,-3.1862,0.1059,3.1138,2.4734,0,1.0000,-998,1,6.6157,-3.8686,-2.1618,-3.7855,171.5976,0.144,0.000,1.000,0.0000,0.0000,0.0000,0.0000,0.0000,0.0000,0
2026-04-17,12:58:44,100,1,-7.9840,-3.3628,0.1070,3.1471,2.5011,0,1.0000,-998,1,6.1418,-8.2433,-2.1815,-2.7455,171.6881,0.192,0.000,1.000,0.0000,0.0000,0.0000,0.0000,0.0000,0.0000,0
2026-04-17,12:58:44,100,1,-7.9840,-3.3742,0.0857,2.5211,2.5280,0,1.0000,-998,1,5.9646,-5.5902,-2.2417,-2.3981,171.7513,0.240,0.000,1.000,0.0000,0.0000,0.0000,0.0000,0.0000,0.0000,0
2026-04-17,12:58:44,101,1,-7.9840,-3.0940,0.1066,3.1366,2.5523,0,1.0000,-998,1,6.0596,-1.7317,-2.2657,-1.9564,171.7828,0.272,0.000,1.000,0.0000,0.0000,0.0000,0.0000,0.0000,0.0000,0
2026-04-17,12:58:44,102,1,-7.9840,-3.1846,0.1025,3.0141,2.5696,0,1.0000,-998,1,5.7166,-5.1002,-2.2066,-1.1683,171.7524,0.256,0.000,1.000,0.0000,0.0000,0.0000,0.0000,0.0000,0.0000,0
2026-04-17,12:58:44,103,1,-7.9840,-3.2652,0.0884,2.5995,2.6025,0,1.0000,-998,1,5.6135,-2.6378,-2.1724,-0.5500,171.8285,0.256,0.000,1.000,0.0000,0.0000,0.0000,0.0000,0.0000,0.0000,0
2026-04-17,12:58:44,104,1,-7.9840,-3.1417,0.0901,2.6509,2.6302,0,1.0000,-998,1,5.5962,-1.7283,-2.2063,-0.6494,171.9031,0.232,0.000,1.000,0.0000,0.0000,0.0000,0.0000,0.0000,0.0000,0
2026-04-17,12:58:44,105,1,-7.9840,-3.4042,0.1124,3.3071,2.6593,0,1.0000,-998,1,5.3675,-4.1287,-2.2781,-1.0251,171.8461,0.208,0.000,1.000,0.0000,0.0000,0.0000,0.0000,0.0000,0.0000,0
2026-04-17,12:58:44,105,1,-7.9840,-3.4345,0.0970,2.8536,2.6870,0,1.0000,-998,1,5.4234,-0.6026,-2.2822,-0.7887,171.8840,0.184,0.000,1.000,0.0000,0.0000,0.0000,0.0000,0.0000,0.0000,0
2026-04-17,12:58:44,106,1,-7.9840,-3.2617,0.0863,2.5383,2.7157,0,1.0000,-998,1,5.8495,6.7927,-2.1344,0.6127,172.0832,0.160,0.000,1.000,0.0000,0.0000,0.0000,0.0000,0.0000,0.0000,0
2026-04-17,12:58:44,106,1,-7.9840,-3.0659,0.0885,2.6029,2.7413,0,1.0000,-998,1,5.6238,-2.3617,-1.9204,2.4008,172.0789,0.136,0.000,1.000,0.0000,0.0000,0.0000,0.0000,0.0000,0.0000,0
2026-04-17,12:58:44,108,1,-7.9840,-3.2264,0.0883,2.5976,2.7650,0,1.0000,-998,1,5.5546,-1.2257,-1.6946,3.5199,171.9294,0.112,0.000,1.000,0.0000,0.0000,0.0000,0.0000,0.0000,0.0000,0
2026-04-17,12:58:44,109,1,-7.9840,-3.0240,0.0949,2.7910,2.7905,0,1.0000,-998,1,6.2108,8.5748,-1.7352,2.0511,171.9957,0.088,0.000,0.999,0.0000,0.0000,0.0000,0.0000,0.0000,0.0000,0
2026-04-17,12:58:44,110,1,-7.9840,-2.9888,0.0907,2.6676,2.8137,0,1.0000,-998,1,6.1988,2.3841,-1.8252,0.6597,172.0343,0.064,0.000,0.997,0.0000,0.0000,0.0000,0.0000,0.0000,0.0000,0
2026-04-17,12:58:44,111,1,-7.9840,-2.9733,0.0859,2.5255,2.8383,0,1.0000,-998,1,6.0379,-0.5197,-1.6261,2.0260,172.0336,0.040,0.000,0.994,0.0000,0.0000,0.0000,0.0000,0.0000,0.0000,0
2026-04-17,12:58:44,111,1,-7.9840,-3.1793,0.0899,2.6454,2.8546,0,1.0000,-998,1,6.2554,2.8173,-1.6196,1.6163,172.0558,0.024,0.000,0.993,0.0000,0.0000,0.0000,0.0000,0.0000,0.0000,0
2026-04-17,12:58:44,112,1,-7.9840,-3.1413,0.1178,3.4633,2.8842,0,1.0000,-998,1,6.2435,0.6361,-1.7146,0.3886,171.9879,0.000,0.000,0.990,0.0000,0.0000,0.0000,0.0000,0.0000,0.0000,0
2026-04-17,12:58:44,112,1,-0.2640,-0.0261,0.0771,2.2684,6.2647,0,1.0000,-33,1,1.0924,22.6699,6.2905,-4.2907,148.9892,0.208,0.000,0.796,0.0000,0.0000,0.0000,0.0000,0.0000,0.0000,0
2026-04-17,12:58:44,113,1,-7.9840,-0.9664,0.0336,0.9894,6.8715,0,1.0000,-957,1,39.7037,15.5985,-3.6126,-8.3345,156.1161,0.088,0.000,1.000,0.0000,0.0000,0.0000,0.0000,0.0000,0.0000,0
2026-04-17,12:58:44,114,1,-7.2560,-0.5587,0.0496,1.4578,6.8757,0,1.0000,-907,1,40.4859,25.6604,-3.8407,-7.4467,157.2157,0.064,0.000,1.000,0.0000,0.0000,0.0000,0.0000,0.0000,0.0000,0
2026-04-17,12:58:44,148,1,-7.2480,-0.5493,0.0355,1.0442,6.8794,0,1.0000,-906,1,40.9412,18.6804,-3.8992,-5.6795,158.1020,0.048,0.000,1.000,0.0000,0.0000,0.0000,0.0000,0.0000,0.0000,0
2026-04-17,12:58:44,148,1,-7.2560,-0.5027,0.0246,0.7241,6.8846,0,1.0000,-907,1,41.5254,18.8197,-4.0082,-4.5224,159.5557,0.024,0.000,1.000,0.0000,0.0000,0.0000,0.0000,0.0000,0.0000,0
2026-04-17,12:58:44,177,1,-7.2560,-0.2542,0.0540,1.5869,6.8868,0,1.0000,-907,1,42.3252,27.0738,-4.1752,-6.0083,161.0129,0.000,0.000,1.000,0.0000,0.0000,0.0000,0.0000,0.0000,0.0000,0
2026-04-17,12:58:44,212,1,-7.2560,-0.5441,0.0581,1.7100,6.8895,0,1.0000,-907,1,42.7545,5.0440,-4.6906,-12.2095,162.6611,0.000,0.000,1.000,0.0000,0.0000,0.0000,0.0000,0.0000,0.0000,0
2026-04-17,12:58:44,248,1,-7.2560,-0.8208,0.0713,2.0966,6.8947,0,1.0000,-907,1,42.1190,-12.1467,-5.0926,-11.9497,164.3234,0.000,0.000,1.000,0.0000,0.0000,0.0000,0.0000,0.0000,0.0000,0
2026-04-17,12:58:44,284,1,-7.2480,-0.8695,0.0456,1.3409,6.9006,0,1.0000,-906,1,42.5050,26.6950,-5.4883,-11.0577,166.0082,0.000,0.000,1.000,0.0000,0.0000,0.0000,0.0000,0.0000,0.0000,0
2026-04-17,12:58:44,320,1,-7.2560,-1.2671,0.0556,1.6359,6.9094,0,1.0000,-907,1,43.1610,20.5667,-5.4995,-4.1084,167.5442,0.000,0.000,1.000,0.0000,0.0000,0.0000,0.0000,0.0000,0.0000,0
2026-04-17,12:58:44,356,1,-7.2560,-1.1598,0.0440,1.2927,6.9184,0,1.0000,-907,1,43.8306,24.9218,-5.5307,-2.2773,168.5025,0.000,0.000,1.000,0.0000,0.0000,0.0000,0.0000,0.0000,0.0000,0
2026-04-17,12:58:44,391,1,-7.2560,-0.2050,0.0452,1.3305,6.9208,0,1.0000,-907,1,45.0722,34.8297,-5.5248,-0.7260,168.9248,0.000,0.000,1.000,0.0000,0.0000,0.0000,0.0000,0.0000,0.0000,0
2026-04-17,12:58:44,426,1,-7.2560,-0.4706,0.0354,1.0419,6.9239,0,1.0000,-907,1,45.8601,23.5142,-5.6733,-3.5198,169.2168,0.000,0.000,1.000,0.0000,0.0000,0.0000,0.0000,0.0000,0.0000,0
2026-04-17,12:58:44,462,1,-7.2800,-0.3894,0.0354,1.0413,6.9278,0,1.0000,-910,1,46.3051,19.9215,-5.7631,-2.7105,170.3565,0.000,0.000,1.000,0.0000,0.0000,0.0000,0.0000,0.0000,0.0000,0
2026-04-17,12:58:44,498,1,-7.2800,-0.0969,0.0171,0.5031,6.9283,0,1.0000,-910,1,46.8259,15.9219,-5.7800,-1.5121,170.3041,0.000,0.000,1.000,0.0000,0.0000,0.0000,0.0000,0.0000,0.0000,0
2026-04-17,12:58:44,534,1,-7.2800,-0.0164,0.0205,0.6027,6.9291,0,1.0000,-910,1,47.1812,12.8201,-5.8218,-1.2107,171.1424,0.000,0.000,1.000,0.0000,0.0000,0.0000,0.0000,0.0000,0.0000,0
2026-04-17,12:58:44,570,1,-7.3040,-0.1085,0.0308,0.9062,6.9301,0,1.0000,-913,1,47.5316,11.6035,-5.8340,-0.9977,171.3479,0.000,0.000,1.000,0.0000,0.0000,0.0000,0.0000,0.0000,0.0000,0
2026-04-17,12:58:44,605,1,-7.3040,-0.1750,0.0134,0.3937,6.9308,0,1.0000,-913,1,47.8739,9.6256,-5.7831,1.1746,171.6595,0.000,0.000,1.000,0.0000,0.0000,0.0000,0.0000,0.0000,0.0000,0
2026-04-17,12:58:44,640,1,-7.3040,-0.0739,0.0175,0.5161,6.9313,0,1.0000,-913,1,48.0247,3.3241,-5.4643,7.2789,172.1808,0.000,0.000,1.000,0.0000,0.0000,0.0000,0.0000,0.0000,0.0000,0
2026-04-17,12:58:44,677,1,-7.4480,-0.0666,0.0186,0.5482,6.9323,0,1.0000,-931,1,48.1725,6.1941,-5.0760,9.8929,172.2251,0.000,0.000,1.000,0.0000,0.0000,0.0000,0.0000,0.0000,0.0000,0
2026-04-17,12:58:44,713,1,-7.4480,0.0112,0.0183,0.5376,6.9328,0,1.0000,-931,1,48.4249,6.4705,-4.7796,9.2764,172.6585,0.000,0.000,1.000,0.0000,0.0000,0.0000,0.0000,0.0000,0.0000,0
2026-04-17,12:58:44,749,1,-7.4960,-0.0089,0.0146,0.4301,6.9330,0,1.0000,-937,1,48.4717,2.0194,-4.5909,6.8829,172.5699,0.000,0.000,1.000,0.0000,0.0000,0.0000,0.0000,0.0000,0.0000,0
2026-04-17,12:58:44,784,1,-7.4960,-0.0064,0.0146,0.4301,6.9330,0,1.0000,-937,1,48.6228,4.6081,-4.5709,2.5700,172.9032,0.000,0.000,1.000,0.0000,0.0000,0.0000,0.0000,0.0000,0.0000,0
2026-04-17,12:58:44,819,1,-7.4960,0.0322,0.0105,0.3076,6.9329,0,1.0000,-937,1,48.6205,-0.2878,-4.5808,0.6568,172.8707,0.000,0.000,1.000,0.0000,0.0000,0.0000,0.0000,0.0000,0.0000,0
2026-04-17,12:58:44,855,1,-7.4960,0.0076,0.0089,0.2610,6.9328,0,1.0000,-937,1,48.6671,1.4060,-4.5942,-0.0508,173.0643,0.000,0.000,0.998,0.0000,0.0000,0.0000,0.0000,0.0000,0.0000,0
2026-04-17,12:58:45,896,1,-7.5120,0.0060,0.0079,0.2313,6.9327,0,1.0000,-939,1,48.5084,-0.5142,-4.5702,-0.0090,172.8919,0.000,0.000,0.996,0.0000,0.0000,0.0000,0.0000,0.0000,0.0000,0
2026-04-17,12:58:45,932,1,-7.5120,-0.0005,0.0060,0.1766,6.9326,0,1.0000,-939,1,48.2838,0.9963,-4.5919,-0.3912,172.5905,0.000,0.000,0.993,0.0000,0.0000,0.0000,0.0000,0.0000,0.0000,0
2026-04-17,12:58:45,968,1,-7.5200,0.0357,0.0021,0.0606,6.9324,0,1.0000,-940,1,48.3513,10.6479,-4.6665,-1.6876,173.0095,0.000,0.000,0.990,0.0000,0.0000,0.0000,0.0000,0.0000,0.0000,0
2026-04-17,12:58:45,1003,1,-7.5200,0.0279,0.0004,0.0118,6.9323,0,1.0000,-940,1,48.9780,24.5848,-4.7617,-2.4526,167.0165,0.000,0.000,0.986,0.0000,0.0000,0.0000,0.0000,0.0000,0.0000,0
2026-04-17,12:58:45,1038,1,-7.5200,0.0039,0.0005,0.0134,6.9322,0,1.0000,-940,1,49.9113,27.8511,-4.6873,0.9291,168.4633,0.000,0.000,0.983,0.0000,0.0000,0.0000,0.0000,0.0000,0.0000,0
2026-04-17,12:58:45,1075,1,-7.5440,0.0061,0.0001,0.0016,6.9322,0,1.0000,-943,1,49.6659,-11.4669,-4.5904,1.9514,168.6750,0.000,0.000,0.980,0.0000,0.0000,0.0000,0.0000,0.0000,0.0000,0
2026-04-17,12:58:45,1110,1,-7.5440,0.0075,-0.0014,0.0404,6.9322,0,1.0000,-943,1,49.6876,6.2936,-4.5434,1.8862,169.9147,0.000,0.000,0.977,0.0000,0.0000,0.0000,0.0000,0.0000,0.0000,0
2026-04-17,12:58:45,1145,1,-7.5440,-0.0029,-0.0013,0.0390,6.9322,0,1.0000,-943,1,49.8835,-0.0055,-4.3901,3.6492,170.1893,0.000,0.000,0.974,0.0000,0.0000,0.0000,0.0000,0.0000,0.0000,0
2026-04-17,12:58:45,1181,1,-7.5600,-0.0004,-0.0004,0.0105,6.9322,0,1.0000,-945,1,49.6324,-4.1096,-4.3112,3.0380,170.8313,0.000,0.000,0.970,0.0000,0.0000,0.0000,0.0000,0.0000,0.0000,0
2026-04-17,12:58:45,1217,1,-7.5600,0.0034,-0.0003,0.0075,6.9322,0,1.0000,-945,1,49.8936,5.7208,-4.1751,3.6547,171.2746,0.000,0.000,0.967,0.0000,0.0000,0.0000,0.0000,0.0000,0.0000,0
2026-04-17,12:58:45,1253,1,-7.5600,0.0047,-0.0017,0.0509,6.9322,0,1.0000,-945,1,49.7101,-5.2148,-4.0792,3.2474,171.4757,0.000,0.000,0.964,0.0000,0.0000,0.0000,0.0000,0.0000,0.0000,0
2026-04-17,12:58:45,1288,1,-7.5760,-0.0040,0.0006,0.0165,6.9322,0,1.0000,-947,1,49.8538,5.7729,-3.9882,2.9784,172.1117,0.000,0.000,0.961,0.0000,0.0000,0.0000,0.0000,0.0000,0.0000,0
2026-04-17,12:58:45,1323,1,-7.5760,0.0007,-0.0014,0.0405,6.9322,0,1.0000,-947,1,49.8132,-2.6581,-3.9375,1.6613,171.9592,0.000,0.000,0.958,0.0000,0.0000,0.0000,0.0000,0.0000,0.0000,0
2026-04-17,12:58:45,1358,1,-7.5840,-0.0150,0.0004,0.0120,6.9323,0,1.0000,-948,1,49.8116,1.9254,-4.0265,-1.1703,172.5673,0.000,0.000,0.954,0.0000,0.0000,0.0000,0.0000,0.0000,0.0000,0
2026-04-17,12:58:45,1395,1,-7.5920,0.0025,-0.0015,0.0450,6.9322,0,1.0000,-949,1,49.8695,0.5572,-4.0011,-0.0767,172.4176,0.000,0.000,0.951,0.0000,0.0000,0.0000,0.0000,0.0000,0.0000,0
2026-04-17,12:58:45,1430,1,-7.5920,-0.0078,-0.0015,0.0450,6.9323,0,1.0000,-949,1,49.8434,0.0283,-3.9959,0.1725,172.7931,0.000,0.000,0.948,0.0000,0.0000,0.0000,0.0000,0.0000,0.0000,0
2026-04-17,12:58:45,1466,1,-7.6400,0.0026,-0.0013,0.0375,6.9323,0,1.0000,-955,1,49.8652,0.2759,-3.9580,0.7535,172.8536,0.000,0.000,0.945,0.0000,0.0000,0.0000,0.0000,0.0000,0.0000,0
2026-04-17,12:58:45,1502,1,-7.6400,-0.0018,0.0001,0.0030,6.9323,0,1.0000,-955,1,49.8368,-0.7439,-3.9499,0.4059,172.9957,0.000,0.000,0.942,0.0000,0.0000,0.0000,0.0000,0.0000,0.0000,0
2026-04-17,12:58:45,1537,1,-7.6400,-0.0037,-0.0001,0.0031,6.9323,0,1.0000,-955,1,49.8712,1.0684,-3.9064,1.1686,173.1730,0.000,0.000,0.938,0.0000,0.0000,0.0000,0.0000,0.0000,0.0000,0
2026-04-17,12:58:45,1572,1,-7.6720,-0.0075,0.0008,0.0243,6.9323,0,1.0000,-959,1,49.8772,0.1364,-3.9473,-0.6347,173.0986,0.000,0.000,0.935,0.0000,0.0000,0.0000,0.0000,0.0000,0.0000,0
2026-04-17,12:58:45,1607,1,-7.6720,-0.0017,0.0012,0.0349,6.9324,0,1.0000,-959,1,49.8614,-0.3264,-3.8852,1.2722,173.4066,0.000,0.000,0.932,0.0000,0.0000,0.0000,0.0000,0.0000,0.0000,0
2026-04-17,12:58:45,1642,1,-7.6720,-0.0036,0.0016,0.0464,6.9324,0,1.0000,-959,1,49.8505,-1.0226,-3.8700,0.4551,173.2326,0.000,0.000,0.929,0.0000,0.0000,0.0000,0.0000,0.0000,0.0000,0
2026-04-17,12:58:45,1677,1,-5.9920,-0.0004,0.0015,0.0455,6.9324,0,1.0000,-749,1,49.8564,-0.3341,-3.8654,0.3602,173.3248,0.000,0.000,0.926,0.0000,0.0000,0.0000,0.0000,0.0000,0.0000,0
2026-04-17,12:58:45,1713,1,-5.9920,0.0019,0.0018,0.0528,6.9324,0,1.0000,-749,1,49.8699,0.5395,-3.9093,-0.9172,173.2066,0.000,0.000,0.923,0.0000,0.0000,0.0000,0.0000,0.0000,0.0000,0
2026-04-17,12:58:45,1748,1,-5.9920,0.0082,0.0015,0.0431,6.9324,0,1.0000,-749,1,49.8902,0.6809,-3.9122,-0.2966,173.3443,0.000,0.000,0.920,0.0000,0.0000,0.0000,0.0000,0.0000,0.0000,0
2026-04-17,12:58:45,1784,1,-5.9680,-0.0016,0.0016,0.0463,6.9324,0,1.0000,-746,1,49.8857,-0.2486,-3.8901,0.3702,173.3481,0.000,0.000,0.917,0.0000,0.0000,0.0000,0.0000,0.0000,0.0000,0
2026-04-17,12:58:45,1819,1,-5.9680,-0.0006,0.0041,0.1196,6.9324,0,1.0000,-746,1,49.8704,-0.6686,-3.8805,0.0918,173.4221,0.000,0.000,0.914,0.0000,0.0000,0.0000,0.0000,0.0000,0.0000,0
2026-04-17,12:58:45,1854,1,-5.9680,-0.0008,0.0024,0.0715,6.9324,0,1.0000,-746,1,49.8821,-0.0069,-3.9028,-0.2555,173.4757,0.000,0.000,0.910,0.0000,0.0000,0.0000,0.0000,0.0000,0.0000,0
2026-04-17,12:58:46,1890,1,-5.8080,0.0026,0.0053,0.1546,6.9324,0,1.0000,-726,1,50.9431,23.5615,-3.7851,1.5970,173.4982,0.000,0.000,0.907,0.0000,0.0000,0.0000,0.0000,0.0000,0.0000,0
2026-04-17,12:58:46,1926,1,-5.8080,0.0005,0.0012,0.0357,6.9324,0,1.0000,-726,1,51.3001,6.4286,-3.8423,-1.2042,173.5374,0.000,0.000,0.904,0.0000,0.0000,0.0000,0.0000,0.0000,0.0000,0
2026-04-17,12:58:46,1961,1,-5.8080,-0.0037,0.0047,0.1375,6.9324,0,1.0000,-726,1,51.4845,2.9540,-3.9790,-3.7041,173.4590,0.000,0.000,0.901,0.0000,0.0000,0.0000,0.0000,0.0000,0.0000,0
2026-04-17,12:58:46,1997,1,-5.7840,-0.0068,0.0020,0.0602,6.9324,0,1.0000,-723,1,51.3906,-7.6445,-4.1002,-3.8432,173.4506,0.000,0.000,0.898,0.0000,0.0000,0.0000,0.0000,0.0000,0.0000,0
2026-04-17,12:58:46,2032,1,-5.7840,-0.0056,0.0041,0.1204,6.9325,0,1.0000,-723,1,51.1911,-7.9122,-4.0807,-1.0167,173.3475,0.000,0.000,0.894,0.0000,0.0000,0.0000,0.0000,0.0000,0.0000,0
2026-04-17,12:58:46,2067,1,-5.7840,-0.0158,0.0077,0.2266,6.9326,0,1.0000,-723,1,50.9838,-8.9966,-4.0594,0.1268,173.2614,0.000,0.000,0.891,0.0000,0.0000,0.0000,0.0000,0.0000,0.0000,0
2026-04-17,12:58:46,2103,1,-5.7920,-0.0284,0.0099,0.2906,6.9327,0,1.0000,-724,1,50.9947,-1.4561,-3.9625,1.8418,173.1133,0.000,0.000,0.888,0.0000,0.0000,0.0000,0.0000,0.0000,0.0000,0
2026-04-17,12:58:46,2138,1,-5.7920,-0.0187,0.0110,0.3226,6.9329,0,1.0000,-724,1,51.6022,13.6934,-3.8650,2.3661,173.0582,0.000,0.000,0.885,0.0000,0.0000,0.0000,0.0000,0.0000,0.0000,0
2026-04-17,12:58:46,2173,1,-5.7920,-0.0363,0.0165,0.4860,6.9331,0,1.0000,-724,1,52.5859,21.4726,-3.6496,4.6928,172.9617,0.000,0.000,0.882,0.0000,0.0000,0.0000,0.0000,0.0000,0.0000,0
2026-04-17,12:58:46,2210,1,-5.7840,-0.2752,0.0296,0.8698,6.9342,0,1.0000,-723,1,52.9153,-8.0306,-3.4460,4.4713,172.8962,0.000,0.000,0.878,0.0000,0.0000,0.0000,0.0000,0.0000,0.0000,0
2026-04-17,12:58:46,2245,1,-5.7840,-0.2823,0.0159,0.4668,6.9364,0,1.0000,-723,1,51.1283,-69.1932,-3.5851,-2.2613,172.9068,0.000,0.000,0.875,0.0000,0.0000,0.0000,0.0000,0.0000,0.0000,0
2026-04-17,12:58:46,2281,1,-5.7920,-0.1408,0.0396,1.1638,6.9386,0,1.0000,-724,1,49.0328,-65.9730,-3.6959,-2.6335,172.8580,0.048,0.000,0.881,0.0000,0.0000,0.0000,0.0000,0.0000,0.0000,0
2026-04-17,12:58:46,2317,1,-5.7920,-0.3191,0.0386,1.1348,6.9410,0,1.0000,-724,1,47.2076,-58.3160,-3.5749,1.7453,172.8821,0.112,0.000,0.913,0.0000,0.0000,0.0000,0.0000,0.0000,0.0000,0
2026-04-17,12:58:46,2352,1,-5.7920,-0.4618,0.0195,0.5734,6.9443,0,1.0000,-724,1,45.5926,-51.4526,-3.4172,4.1065,172.8964,0.152,0.000,0.945,0.0000,0.0000,0.0000,0.0000,0.0000,0.0000,0
2026-04-17,12:58:46,2388,1,-5.8000,-0.4172,0.0479,1.4077,6.9478,0,1.0000,-725,1,44.3444,-41.0267,-3.1731,6.0144,172.9366,0.192,0.000,0.977,0.0000,0.0000,0.0000,0.0000,0.0000,0.0000,0
2026-04-17,12:58:46,2423,1,-5.8000,-0.5290,0.0278,0.8171,6.9507,0,1.0000,-725,1,43.0829,-43.1521,-3.0992,3.7182,172.8336,0.232,0.000,1.000,0.0000,0.0000,0.0000,0.0000,0.0000,0.0000,0
2026-04-17,12:58:46,2463,1,-5.8000,-0.5182,0.0257,0.7550,6.9555,0,1.0000,-725,1,42.4974,-30.5510,-3.0427,3.2245,172.9815,0.256,0.000,1.000,0.0000,0.0000,0.0000,0.0000,0.0000,0.0000,0
2026-04-17,12:58:46,2499,1,-5.8000,-0.0876,0.0208,0.6122,6.9583,0,1.0000,-725,1,41.7736,-19.7710,-2.7832,6.2582,172.9184,0.272,0.000,1.000,0.0000,0.0000,0.0000,0.0000,0.0000,0.0000,0
2026-04-17,12:58:46,2535,1,-5.8000,-0.0080,0.0198,0.5810,6.9589,0,1.0000,-725,1,41.0941,-24.0199,-2.6486,4.2388,172.7122,0.240,0.000,1.000,0.0000,0.0000,0.0000,0.0000,0.0000,0.0000,0
2026-04-17,12:58:46,2570,1,-5.8000,-0.0146,0.0153,0.4491,6.9591,0,1.0000,-725,1,40.2034,-26.2729,-2.6644,0.9534,173.0071,0.208,0.000,1.000,0.0000,0.0000,0.0000,0.0000,0.0000,0.0000,0
2026-04-17,12:58:46,2606,1,-5.8000,0.0008,0.0129,0.3807,6.9590,0,1.0000,-725,1,39.7361,-14.7171,-2.7294,-0.9500,172.8588,0.176,0.000,1.000,0.0000,0.0000,0.0000,0.0000,0.0000,0.0000,0
2026-04-17,12:58:46,2641,1,-5.8000,-0.0111,0.0137,0.4023,6.9590,0,1.0000,-725,1,39.4650,-9.2279,-2.8704,-3.7923,172.8148,0.144,0.000,1.000,0.0000,0.0000,0.0000,0.0000,0.0000,0.0000,0
2026-04-17,12:58:46,2676,1,-5.8000,-0.0111,0.0145,0.4256,6.9590,0,1.0000,-725,1,38.9220,-17.9561,-3.1864,-8.0391,172.8544,0.112,0.000,1.000,0.0000,0.0000,0.0000,0.0000,0.0000,0.0000,0
2026-04-17,12:58:46,2712,1,-5.8000,0.0086,0.0115,0.3376,6.9590,0,1.0000,-725,1,38.6810,-6.9546,-3.4721,-8.4130,172.8855,0.080,0.000,1.000,0.0000,0.0000,0.0000,0.0000,0.0000,0.0000,0
2026-04-17,12:58:46,2747,1,-5.8160,-0.0226,0.0152,0.4472,6.9590,0,1.0000,-727,1,38.3896,-10.5412,-3.6823,-7.2767,172.8363,0.048,0.000,1.000,0.0000,0.0000,0.0000,0.0000,0.0000,0.0000,0
2026-04-17,12:58:46,2783,1,-5.8160,-0.0013,0.0125,0.3682,6.9590,0,1.0000,-727,1,38.1336,-6.8597,-3.8502,-6.0648,172.9294,0.016,0.000,1.000,0.0000,0.0000,0.0000,0.0000,0.0000,0.0000,0
2026-04-17,12:58:46,2819,1,-5.8160,0.0093,0.0125,0.3672,6.9590,0,1.0000,-727,1,37.9759,-6.5472,-3.9498,-4.4680,172.9035,0.000,0.000,1.000,0.0000,0.0000,0.0000,0.0000,0.0000,0.0000,0
2026-04-17,12:58:46,2854,1,-5.8160,0.0081,0.0130,0.3825,6.9590,0,1.0000,-727,1,37.6999,-7.2812,-4.0760,-4.1087,172.9658,0.000,0.000,1.000,0.0000,0.0000,0.0000,0.0000,0.0000,0.0000,0
2026-04-17,12:58:47,2889,1,-5.8160,0.0021,0.0127,0.3745,6.9590,0,1.0000,-727,1,37.6555,-2.2165,-4.1724,-3.2603,172.9692,0.000,0.000,1.000,0.0000,0.0000,0.0000,0.0000,0.0000,0.0000,0
2026-04-17,12:58:47,2925,1,-5.8240,-0.0205,0.0148,0.4365,6.9591,0,1.0000,-728,1,37.5219,-4.3644,-4.2462,-2.7307,172.9644,0.000,0.000,1.000,0.0000,0.0000,0.0000,0.0000,0.0000,0.0000,0
2026-04-17,12:58:47,2961,1,-5.8240,-0.1555,0.0193,0.5674,6.9596,0,1.0000,-728,1,37.3821,-4.6536,-4.3931,-4.4807,173.0461,0.000,0.000,1.000,0.0000,0.0000,0.0000,0.0000,0.0000,0.0000,0
2026-04-17,12:58:47,2996,1,-5.8240,-0.2736,0.0195,0.5730,6.9616,0,1.0000,-728,1,37.2554,-3.8004,-4.4786,-2.7304,173.1441,0.000,0.000,1.000,0.0000,0.0000,0.0000,0.0000,0.0000,0.0000,0
2026-04-17,12:58:47,3032,1,-5.8320,-0.3548,0.0354,1.0422,6.9644,0,1.0000,-729,1,37.1945,-1.7276,-4.1527,5.7284,173.2241,0.000,0.000,1.000,0.0000,0.0000,0.0000,0.0000,0.0000,0.0000,0
2026-04-17,12:58:47,3067,1,-5.8320,-0.5396,0.0322,0.9484,6.9681,0,1.0000,-729,1,37.1341,-2.0495,-3.7934,9.2661,173.2333,0.000,0.000,1.000,0.0000,0.0000,0.0000,0.0000,0.0000,0.0000,0
2026-04-17,12:58:47,3102,1,-5.8320,-0.7073,0.0292,0.8595,6.9738,0,1.0000,-729,1,37.0042,-2.9981,-3.2737,13.4819,173.3774,0.000,0.000,1.000,0.0000,0.0000,0.0000,0.0000,0.0000,0.0000,0
2026-04-17,12:58:47,3138,1,-5.8400,-0.3885,0.0411,1.2094,6.9782,0,1.0000,-730,1,36.9523,-1.0318,-2.8494,12.6820,173.5351,0.000,0.000,1.000,0.0000,0.0000,0.0000,0.0000,0.0000,0.0000,0
2026-04-17,12:58:47,3173,1,-5.8400,-0.5732,0.0376,1.1066,6.9815,0,1.0000,-730,1,36.7177,-8.6312,-2.4181,12.8396,173.6172,0.000,0.000,1.000,0.0000,0.0000,0.0000,0.0000,0.0000,0.0000,0
2026-04-17,12:58:47,3209,1,-5.8400,-0.5727,0.0177,0.5220,6.9859,0,1.0000,-730,1,36.6280,-1.9069,-2.2038,7.9610,173.5434,0.000,0.000,1.000,0.0000,0.0000,0.0000,0.0000,0.0000,0.0000,0
2026-04-17,12:58:47,3245,1,-5.8400,-0.2162,0.0415,1.2196,6.9879,0,1.0000,-730,1,36.6684,-0.6126,-2.1116,6.7136,173.5583,0.000,0.000,1.000,0.0000,0.0000,0.0000,0.0000,0.0000,0.0000,0
2026-04-17,12:58:47,3280,1,-5.8400,-0.1596,0.0094,0.2762,6.9893,0,1.0000,-730,1,36.4467,-8.5083,-2.0519,3.0840,173.4586,0.000,0.000,0.999,0.0000,0.0000,0.0000,0.0000,0.0000,0.0000,0
2026-04-17,12:58:47,3316,1,-5.8640,0.0067,0.0149,0.4380,6.9893,0,1.0000,-733,1,36.3813,-0.4754,-2.2398,-3.3230,173.5349,0.000,0.000,1.000,0.0000,0.0000,0.0000,0.0000,0.0000,0.0000,0
2026-04-17,12:58:47,3351,1,-5.8640,0.0174,0.0110,0.3249,6.9892,0,1.0000,-733,1,36.4789,4.1763,-2.5363,-7.3063,173.4386,0.000,0.000,1.000,0.0000,0.0000,0.0000,0.0000,0.0000,0.0000,0
2026-04-17,12:58:47,3386,1,-5.8640,0.0051,0.0125,0.3682,6.9892,0,1.0000,-733,1,36.7879,10.2183,-2.8240,-8.5914,173.3102,0.000,0.000,1.000,0.0000,0.0000,0.0000,0.0000,0.0000,0.0000,0
2026-04-17,12:58:47,3421,1,-5.8640,-0.0255,0.0153,0.4493,6.9893,0,1.0000,-733,1,36.7718,0.0223,-3.0547,-7.4195,173.3755,0.000,0.000,0.999,0.0000,0.0000,0.0000,0.0000,0.0000,0.0000,0
2026-04-17,12:58:47,3457,1,-5.8640,-0.0734,0.0184,0.5426,6.9896,0,1.0000,-733,1,36.7812,0.3398,-2.9708,-0.9727,173.5812,0.000,0.000,0.996,0.0000,0.0000,0.0000,0.0000,0.0000,0.0000,0
2026-04-17,12:58:47,3492,1,-5.8640,-0.2709,0.0332,0.9767,6.9911,0,1.0000,-733,1,36.7162,-1.3092,-2.6838,5.1268,174.1908,0.000,0.000,0.993,0.0000,0.0000,0.0000,0.0000,0.0000,0.0000,0
2026-04-17,12:58:47,3528,1,-4.6720,-0.5025,0.0415,1.2195,6.9940,0,1.0000,-584,1,36.5788,-2.9546,-2.1124,12.4059,174.5705,0.000,0.000,0.990,0.0000,0.0000,0.0000,0.0000,0.0000,0.0000,0
2026-04-17,12:58:47,3563,1,-4.6720,-0.6930,0.0464,1.3648,6.9985,0,1.0000,-584,1,36.4045,-5.5772,-1.6582,11.6960,174.3497,0.000,0.000,0.986,0.0000,0.0000,0.0000,0.0000,0.0000,0.0000,0
2026-04-17,12:58:47,3598,1,-4.6720,-0.7012,0.0305,0.8979,7.0045,0,1.0000,-584,1,36.5232,5.1266,-1.5674,5.8042,174.0707,0.000,0.000,0.999,0.0000,0.0000,0.0000,0.0000,0.0000,0.0000,0
2026-04-17,12:58:47,3634,1,-1.8800,-0.5911,0.0319,0.9396,7.0099,0,1.0000,-235,1,36.5116,0.8191,-1.4909,3.2343,173.8903,0.000,0.000,0.996,0.0000,0.0000,0.0000,0.0000,0.0000,0.0000,0
2026-04-17,12:58:47,3670,1,-1.8800,-0.7717,0.0301,0.8864,7.0154,0,1.0000,-235,1,36.4369,0.2714,-1.5088,0.5735,173.8644,0.000,0.000,0.993,0.0000,0.0000,0.0000,0.0000,0.0000,0.0000,0
2026-04-17,12:58:47,3706,1,-1.8800,-0.4134,0.0254,0.7471,7.0197,0,1.0000,-235,1,36.4670,3.2489,-1.5015,0.9179,173.8719,0.000,0.000,0.990,0.0000,0.0000,0.0000,0.0000,0.0000,0.0000,0
2026-04-17,12:58:47,3742,1,0.0240,0.0100,0.0126,0.3693,7.0197,0,1.0000,3,1,36.5246,0.6692,-1.5093,-0.3740,173.5573,0.000,0.000,0.986,0.0000,0.0000,0.0000,0.0000,0.0000,0.0000,0
,,3777,1,2.6000,1.1393,0.1415,4.1616,7.0179,0,1.0000,325,1,36.9215,21.8567,-1.7206,-4.3724,173.7643,0.000,0.000,0.992,0.0000,0.0000,0.0000,0.0000,0.0000,0.0000,0
2026-04-17,12:58:47,3812,1,7.6080,6.0899,0.1928,5.6691,6.9904,0,1.0000,951,1,38.1409,51.7239,-1.5238,3.3247,166.8903,0.000,0.000,1.000,0.0000,0.0000,0.0000,0.0000,0.0000,0.0000,0
2026-04-17,12:58:47,3848,1,7.9040,8.0116,0.1878,5.5230,6.9308,0,1.0000,988,1,39.5343,43.7707,-0.4470,21.0527,167.9684,0.000,0.000,1.000,0.0000,0.0000,0.0000,0.0000,0.0000,0.0000,0
2026-04-17,12:58:48,3884,1,7.9040,7.7460,0.2103,6.1854,6.8709,0,1.0000,988,1,39.5598,-4.0091,0.1906,15.7545,167.8967,0.000,0.000,1.000,0.0000,0.0000,0.0000,0.0000,0.0000,0.0000,0
2026-04-17,12:58:48,3919,1,7.9760,7.8119,0.2041,6.0029,6.8119,0,1.0000,997,1,38.1829,-36.5492,-0.4075,-6.1390,168.3379,0.000,0.000,1.000,0.0000,0.0000,0.0000,0.0000,0.0000,0.0000,0
2026-04-17,12:58:48,3956,1,7.9920,8.0985,0.1916,5.6356,6.7489,0,1.0000,999,1,37.0052,-42.9855,-0.5738,-5.0146,162.9416,0.064,0.000,1.000,0.0000,0.0000,0.0000,0.0000,0.0000,0.0000,0
2026-04-17,12:58:48,3991,1,7.9920,8.1567,0.1709,5.0262,6.6880,0,1.0000,999,1,34.4364,-83.4845,-0.7959,-6.1518,124.8197,0.128,0.000,1.000,0.0000,0.0000,0.0000,0.0000,0.0000,0.0000,0
2026-04-17,12:58:48,4028,1,7.9920,8.1242,0.1553,4.5666,6.6267,0,1.0000,999,1,33.7089,-45.7289,-0.7923,-4.2218,107.2029,0.176,0.000,1.000,0.0000,0.0000,0.0000,0.0000,0.0000,0.0000,0
2026-04-17,12:58:48,4063,1,7.9920,8.0396,0.1398,4.1117,6.5633,0,1.0000,999,1,32.8153,-25.1367,-0.8437,-2.6359,85.1617,0.240,0.000,1.000,0.0000,0.0000,0.0000,0.0000,0.0000,0.0000,0
2026-04-17,12:58:48,4098,1,7.9920,8.0324,0.1502,4.4165,6.5036,0,1.0000,999,1,33.0597,14.7142,-0.5788,2.9544,98.2047,0.304,0.000,1.000,0.0000,0.0000,0.0000,0.0000,0.0000,0.0000,0
2026-04-17,12:58:48,4133,1,6.7440,7.8553,0.1562,4.5944,6.4429,0,1.0000,843,1,35.0446,65.2116,-0.6015,-0.1409,108.7552,0.296,0.000,1.000,0.0000,0.0000,0.0000,0.0000,0.0000,0.0000,0
2026-04-17,12:58:48,4169,1,5.7280,5.6843,0.0969,2.8490,6.3904,0,1.0000,716,1,36.8754,56.0194,-0.5276,0.5962,117.1777,0.264,0.000,1.000,0.0000,0.0000,0.0000,0.0000,0.0000,0.0000,0
2026-04-17,12:58:48,4204,1,5.7280,5.7597,0.1092,3.2104,6.3488,0,1.0000,716,1,38.3757,41.3498,-0.5392,-1.7278,124.2845,0.232,0.000,1.000,0.0000,0.0000,0.0000,0.0000,0.0000,0.0000,0
2026-04-17,12:58:48,4239,1,3.6640,5.6502,0.1204,3.5400,6.3050,0,1.0000,458,1,39.0526,12.2561,-0.7826,-4.5840,130.9601,0.200,0.000,1.000,0.0000,0.0000,0.0000,0.0000,0.0000,0.0000,0
2026-04-17,12:58:48,4275,1,3.6640,3.6230,0.0776,2.2820,6.2750,0,1.0000,458,1,38.3818,-15.1071,-0.8399,-2.7022,130.3837,0.168,0.000,1.000,0.0000,0.0000,0.0000,0.0000,0.0000,0.0000,0
2026-04-17,12:58:48,4310,1,3.6640,3.7149,0.0548,1.6132,6.2471,0,1.0000,458,1,37.1991,-27.3583,-0.9793,-3.6227,123.7931,0.184,0.000,1.000,0.0000,0.0000,0.0000,0.0000,0.0000,0.0000,0
2026-04-17,12:58:48,4346,1,-0.1600,3.0011,0.0459,1.3496,6.2207,0,1.0000,-20,1,37.1786,-2.1698,-1.1227,-3.6720,85.7822,0.248,0.000,1.000,0.0000,0.0000,0.0000,0.0000,0.0000,0.0000,0
2026-04-17,12:58:48,4382,1,-0.1600,-0.2915,0.0277,0.8134,6.2184,0,1.0000,-20,1,37.7571,26.2139,-1.0441,0.3114,93.3222,0.240,0.000,1.000,0.0000,0.0000,0.0000,0.0000,0.0000,0.0000,0
2026-04-17,12:58:48,4418,1,-0.1600,0.0307,0.0080,0.2357,6.2181,0,1.0000,-20,1,38.2818,6.9211,-0.8849,2.4967,105.1202,0.208,0.000,0.999,0.0000,0.0000,0.0000,0.0000,0.0000,0.0000,0
2026-04-17,12:58:48,4454,1,-0.2480,0.0013,0.0101,0.2967,6.2182,0,1.0000,-31,1,38.7975,19.8495,-0.6111,6.0534,114.4481,0.176,0.000,0.996,0.0000,0.0000,0.0000,0.0000,0.0000,0.0000,0
2026-04-17,12:58:48,4489,1,-0.2480,-0.0061,0.0103,0.3027,6.2182,0,1.0000,-31,1,39.3708,10.6465,-0.3209,6.1837,122.7453,0.144,0.000,1.000,0.0000,0.0000,0.0000,0.0000,0.0000,0.0000,0
2026-04-17,12:58:48,4524,1,-0.2480,-0.0015,0.0086,0.2535,6.2182,0,1.0000,-31,1,38.9302,-15.8885,-0.4707,-0.4668,130.3157,0.112,0.000,0.999,0.0000,0.0000,0.0000,0.0000,0.0000,0.0000,0
2026-04-17,12:58:48,4560,1,-0.2480,0.0069,0.0100,0.2935,6.2181,0,1.0000,-31,1,38.1585,-18.4288,-0.5482,-2.0711,136.8690,0.080,0.000,0.999,0.0000,0.0000,0.0000,0.0000,0.0000,0.0000,0
2026-04-17,12:58:48,4595,1,-0.2400,-0.0005,0.0074,0.2189,6.2181,0,1.0000,-30,1,38.2250,-0.9605,-0.6195,-1.7282,142.4826,0.048,0.000,0.996,0.0000,0.0000,0.0000,0.0000,0.0000,0.0000,0
2026-04-17,12:58:48,4631,1,-0.2480,-0.0115,0.0098,0.2886,6.2181,0,1.0000,-31,1,38.0354,-5.5184,-0.5584,0.2859,146.6844,0.016,0.000,0.993,0.0000,0.0000,0.0000,0.0000,0.0000,0.0000,0
2026-04-17,12:58:48,4667,1,-0.2480,0.0067,0.0093,0.2747,6.2181,0,1.0000,-31,1,37.9632,-3.2183,-0.6135,-0.7192,150.9067,0.000,0.000,0.990,0.0000,0.0000,0.0000,0.0000,0.0000,0.0000,0
2026-04-17,12:58:48,4702,1,-0.2480,-0.0018,0.0088,0.2577,6.2181,0,1.0000,-31,1,37.7912,-5.4289,-0.5624,0.5251,154.0297,0.000,0.000,0.986,0.0000,0.0000,0.0000,0.0000,0.0000,0.0000,0
2026-04-17,12:58:48,4737,1,-0.2480,0.0122,0.0088,0.2586,6.2181,0,1.0000,-31,1,37.7493,-1.7169,-0.5582,0.2693,156.9717,0.000,0.000,0.992,0.0000,0.0000,0.0000,0.0000,0.0000,0.0000,0
2026-04-17,12:58:48,4773,1,-0.3360,-0.0045,0.0103,0.3017,6.2181,0,1.0000,-42,1,37.6245,-4.0117,-0.5498,0.4755,159.3695,0.000,0.000,0.998,0.0000,0.0000,0.0000,0.0000,0.0000,0.0000,0
2026-04-17,12:58:48,4814,1,-0.3360,-0.0071,0.0103,0.3028,6.2182,0,1.0000,-42,1,37.6795,1.5856,-0.5277,0.5836,160.4395,0.000,0.000,1.000,0.0000,0.0000,0.0000,0.0000,0.0000,0.0000,0
2026-04-17,12:58:48,4850,1,-0.6240,-0.0584,0.0189,0.5560,6.2185,0,1.0000,-78,1,37.7147,-0.0812,-0.5494,-0.2533,162.1021,0.000,0.000,1.000,0.0000,0.0000,0.0000,0.0000,0.0000,0.0000,0
2026-04-17,12:58:49,4886,1,-0.6240,-0.1255,0.0156,0.4597,6.2193,0,1.0000,-78,1,37.6219,-6.7385,-0.8809,-6.5771,162.8984,0.000,0.000,0.998,0.0000,0.0000,0.0000,0.0000,0.0000,0.0000,0
2026-04-17,12:58:49,4922,1,-0.6240,-0.0098,0.0130,0.3834,6.2195,0,1.0000,-78,1,37.3541,-6.8730,-1.4203,-11.5547,164.2248,0.000,0.000,0.994,0.0000,0.0000,0.0000,0.0000,0.0000,0.0000,0
2026-04-17,12:58:49,4958,1,-0.9280,-0.0165,0.0134,0.3951,6.2195,0,1.0000,-116,1,37.5097,4.3998,-1.6871,-7.8115,165.6104,0.000,0.000,0.991,0.0000,0.0000,0.0000,0.0000,0.0000,0.0000,0
2026-04-17,12:58:49,4993,1,-0.9280,-0.0181,0.0167,0.4916,6.2196,0,1.0000,-116,1,37.5751,-0.2587,-1.7903,-5.5274,166.1572,0.000,0.000,0.988,0.0000,0.0000,0.0000,0.0000,0.0000,0.0000,0
2026-04-17,12:58:49,5028,1,-0.9280,-0.0700,0.0199,0.5846,6.2202,0,1.0000,-116,1,37.4830,-5.5090,-2.5043,-15.7899,166.1107,0.000,0.000,0.985,0.0000,0.0000,0.0000,0.0000,0.0000,0.0000,0
2026-04-17,12:58:49,5064,1,-1.3120,-0.0279,0.0200,0.5883,6.2209,0,1.0000,-164,1,37.5362,7.5710,-3.3191,-19.0663,166.5490,0.000,0.000,0.982,0.0000,0.0000,0.0000,0.0000,0.0000,0.0000,0
2026-04-17,12:58:49,5100,1,-1.3120,-0.3464,0.0336,0.9896,6.2223,0,1.0000,-164,1,37.6938,-2.0208,-3.7812,-13.5701,167.4791,0.000,0.000,0.978,0.0000,0.0000,0.0000,0.0000,0.0000,0.0000,0
2026-04-17,12:58:49,5135,1,-1.3120,-0.2949,0.0076,0.2225,6.2246,0,1.0000,-164,1,37.5162,-2.1541,-3.6098,-0.7150,168.5166,0.000,0.000,0.975,0.0000,0.0000,0.0000,0.0000,0.0000,0.0000,0
2026-04-17,12:58:49,5171,1,-1.4480,-0.0910,0.0231,0.6786,6.2254,0,1.0000,-181,1,37.5960,-0.4233,-3.5710,-0.0102,168.5519,0.000,0.000,0.990,0.0000,0.0000,0.0000,0.0000,0.0000,0.0000,0
2026-04-17,12:58:49,5207,1,-1.4560,-0.2100,0.0285,0.8390,6.2269,0,1.0000,-182,1,37.5717,0.0775,-3.8310,-4.4732,168.6911,0.000,0.000,0.986,0.0000,0.0000,0.0000,0.0000,0.0000,0.0000,0
2026-04-17,12:58:49,5242,1,-1.4800,-0.1018,0.0123,0.3610,6.2273,0,1.0000,-185,1,37.4910,-3.9903,-4.3466,-11.4868,168.8940,0.000,0.000,0.983,0.0000,0.0000,0.0000,0.0000,0.0000,0.0000,0
2026-04-17,12:58:49,5278,1,-1.4800,-0.1276,0.0227,0.6681,6.2280,0,1.0000,-185,1,37.3752,-4.9482,-5.1141,-17.8166,168.9226,0.000,0.000,0.980,0.0000,0.0000,0.0000,0.0000,0.0000,0.0000,0
2026-04-17,12:58:49,5314,1,-1.4800,-0.0909,0.0249,0.7313,6.2291,0,1.0000,-185,1,37.5201,5.4376,-5.4678,-11.2445,169.2825,0.000,0.000,0.977,0.0000,0.0000,0.0000,0.0000,0.0000,0.0000,0
2026-04-17,12:58:49,5349,1,-1.4800,-0.1354,0.0280,0.8237,6.2299,0,1.0000,-185,1,37.3922,-5.1764,-5.3534,-0.1855,169.6885,0.000,0.000,0.974,0.0000,0.0000,0.0000,0.0000,0.0000,0.0000,0
2026-04-17,12:58:49,5386,1,-1.4800,-0.1893,0.0163,0.4785,6.2310,0,1.0000,-185,1,37.4239,2.3786,-5.1502,4.6875,169.7099,0.000,0.000,0.970,0.0000,0.0000,0.0000,0.0000,0.0000,0.0000,0
2026-04-17,12:58:49,5422,1,-1.4880,-0.1812,0.0173,0.5088,6.2319,0,1.0000,-186,1,37.5179,-1.0277,-5.2103,1.5663,169.3216,0.000,0.000,0.967,0.0000,0.0000,0.0000,0.0000,0.0000,0.0000,0
2026-04-17,12:58:49,5458,1,-1.5040,-0.3088,0.0418,1.2301,6.2342,0,1.0000,-188,1,37.6507,6.1083,-5.4987,-3.4652,169.2104,0.000,0.000,0.964,0.0000,0.0000,0.0000,0.0000,0.0000,0.0000,0
2026-04-17,12:58:49,5494,1,-1.5680,-0.4055,0.0373,1.0962,6.2375,0,1.0000,-196,1,37.7136,0.6134,-5.8429,-6.0198,168.9899,0.000,0.000,0.987,0.0000,0.0000,0.0000,0.0000,0.0000,0.0000,0
2026-04-17,12:58:49,5529,1,-1.5680,-0.6304,0.0274,0.8062,6.2419,0,1.0000,-196,1,37.6165,-1.5145,-6.1805,-7.4507,168.7939,0.000,0.000,1.000,0.0000,0.0000,0.0000,0.0000,0.0000,0.0000,0
2026-04-17,12:58:49,5566,1,-3.6800,-0.1277,0.0444,1.3063,6.2450,0,1.0000,-460,1,37.5805,2.6160,-6.3756,-5.0787,168.8549,0.000,0.000,1.000,0.0000,0.0000,0.0000,0.0000,0.0000,0.0000,0
2026-04-17,12:58:49,5599,1,-3.6800,-0.1545,0.0377,1.1103,6.2457,0,1.0000,-460,1,37.6304,2.1307,-6.8323,-7.0296,168.5942,0.000,0.000,1.000,0.0000,0.0000,0.0000,0.0000,0.0000,0.0000,0
2026-04-17,12:58:49,5635,1,-3.6800,-0.3291,0.0325,0.9562,6.2479,0,1.0000,-460,1,37.4215,-6.7159,-6.9767,-3.9348,169.0115,0.000,0.000,1.000,0.0000,0.0000,0.0000,0.0000,0.0000,0.0000,0
2026-04-17,12:58:49,5671,1,-0.4880,-0.3034,0.0188,0.5534,6.2497,0,1.0000,-61,1,37.4408,1.6921,-7.0187,-1.3225,169.3976,0.000,0.000,1.000,0.0000,0.0000,0.0000,0.0000,0.0000,0.0000,0
2026-04-17,12:58:49,5706,1,-0.4880,-0.3081,0.0355,1.0444,6.2519,0,1.0000,-61,1,37.5625,-0.3209,-7.2792,-5.7082,169.5435,0.000,0.000,1.000,0.0000,0.0000,0.0000,0.0000,0.0000,0.0000,0
2026-04-17,12:58:49,5741,1,-0.4880,-0.2687,0.0155,0.4559,6.2548,0,1.0000,-61,1,37.3031,-4.0990,-7.5695,-7.1400,169.5254,0.000,0.000,1.000,0.0000,0.0000,0.0000,0.0000,0.0000,0.0000,0
2026-04-17,12:58:49,5778,1,0.0000,-0.0374,0.0233,0.6839,6.2557,0,1.0000,0,1,37.6174,7.2027,-7.9643,-9.1290,169.2604,0.000,0.000,1.000,0.0000,0.0000,0.0000,0.0000,0.0000,0.0000,0
2026-04-17,12:58:49,5813,1,0.0000,-0.0168,0.0274,0.8063,6.2559,0,1.0000,0,1,37.5531,-2.1737,-8.2454,-7.2181,169.0973,0.000,0.000,0.999,0.0000,0.0000,0.0000,0.0000,0.0000,0.0000,0
2026-04-17,12:58:49,5848,1,0.0000,0.0032,0.0265,0.7806,6.2558,0,1.0000,0,1,37.3851,-5.7213,-8.3849,-4.1387,169.2552,0.000,0.000,0.996,0.0000,0.0000,0.0000,0.0000,0.0000,0.0000,0
2026-04-17,12:58:50,5884,1,0.0000,0.0041,0.0255,0.7491,6.2558,0,1.0000,0,1,37.3712,-0.0540,-8.6092,-4.7702,169.2898,0.000,0.000,0.993,0.0000,0.0000,0.0000,0.0000,0.0000,0.0000,0
2026-04-17,12:58:50,5919,1,0.0000,0.0121,0.0253,0.7436,6.2558,0,1.0000,0,1,37.3318,-2.7537,-8.7346,-2.8509,169.4154,0.000,0.000,0.990,0.0000,0.0000,0.0000,0.0000,0.0000,0.0000,0
2026-04-17,12:58:50,5954,1,0.0000,-0.0011,0.0250,0.7359,6.2558,0,1.0000,0,1,37.2811,-1.4279,-8.6422,1.9900,169.6986,0.000,0.000,0.986,0.0000,0.0000,0.0000,0.0000,0.0000,0.0000,0
2026-04-17,12:58:50,5990,1,0.0000,0.0037,0.0247,0.7255,6.2558,0,1.0000,0,1,37.3043,0.5613,-8.3974,6.6090,170.0156,0.000,0.000,0.983,0.0000,0.0000,0.0000,0.0000,0.0000,0.0000,0
2026-04-17,12:58:50,6025,1,0.0000,0.0042,0.0251,0.7384,6.2558,0,1.0000,0,1,37.2834,-1.2138,-8.1706,6.9378,170.2343,0.000,0.000,0.980,0.0000,0.0000,0.0000,0.0000,0.0000,0.0000,0
2026-04-17,12:58:50,6060,1,0.0000,0.0028,0.0250,0.7360,6.2557,0,1.0000,0,1,37.2280,-0.3334,-8.0767,4.2140,170.3241,0.000,0.000,0.977,0.0000,0.0000,0.0000,0.0000,0.0000,0.0000,0
2026-04-17,12:58:50,6096,1,0.0000,0.0055,0.0248,0.7307,6.2557,0,1.0000,0,1,37.2515,-0.2991,-8.2627,-1.7978,170.0878,0.000,0.000,0.974,0.0000,0.0000,0.0000,0.0000,0.0000,0.0000,0
2026-04-17,12:58:50,6131,1,0.0000,0.0035,0.0248,0.7306,6.2557,0,1.0000,0,1,37.2286,-1.0048,-8.6306,-7.0305,169.8003,0.000,0.000,0.970,0.0000,0.0000,0.0000,0.0000,0.0000,0.0000,0
2026-04-17,12:58:50,6166,1,0.0000,0.0114,0.0229,0.6733,6.2557,0,1.0000,0,1,37.2378,0.3614,-8.9867,-8.0415,169.6933,0.000,0.000,0.967,0.0000,0.0000,0.0000,0.0000,0.0000,0.0000,0
2026-04-17,12:58:50,6201,1,0.0000,0.0164,0.0225,0.6632,6.2557,0,1.0000,0,1,37.2238,-1.3822,-9.0806,-3.2784,169.8915,0.000,0.000,0.964,0.0000,0.0000,0.0000,0.0000,0.0000,0.0000,0
2026-04-17,12:58:50,6236,1,0.0000,-0.0059,0.0233,0.6839,6.2556,0,1.0000,0,1,37.1899,-0.5976,-9.0533,0.2806,170.2300,0.000,0.000,0.961,0.0000,0.0000,0.0000,0.0000,0.0000,0.0000,0
2026-04-17,12:58:50,6271,1,0.0000,0.0001,0.0239,0.7022,6.2556,0,1.0000,0,1,37.2401,1.7043,-8.9567,2.5792,170.3693,0.000,0.000,0.958,0.0000,0.0000,0.0000,0.0000,0.0000,0.0000,0
2026-04-17,12:58:50,6307,1,0.0000,0.0076,0.0218,0.6425,6.2556,0,1.0000,0,1,37.2210,-1.7652,-8.9418,1.4032,170.3252,0.000,0.000,0.954,0.0000,0.0000,0.0000,0.0000,0.0000,0.0000,0
2026-04-17,12:58:50,6342,1,0.0000,0.0043,0.0232,0.6815,6.2556,0,1.0000,0,1,37.0371,-4.2139,-9.0292,-0.7844,170.3016,0.000,0.000,0.951,0.0000,0.0000,0.0000,0.0000,0.0000,0.0000,0
2026-04-17,12:58:50,6379,1,0.0000,0.0184,0.0214,0.6288,6.2556,0,1.0000,0,0,37.0591,-1.3767,-9.2613,-2.4539,170.1716,0.000,0.000,0.949,0.0000,0.0000,0.0000,0.0000,0.0000,0.0000,0
2026-04-17,12:58:50,6414,1,0.0000,0.0242,0.0157,0.4611,6.2554,0,1.0000,0,0,36.9423,-3.2295,-9.0441,4.1173,170.4753,0.000,0.000,0.946,0.0000,0.0000,0.0000,0.0000,0.0000,0.0000,0
2026-04-17,12:58:50,6449,1,0.0000,0.0046,0.0160,0.4717,6.2553,0,1.0000,0,0,36.9306,0.1252,-8.8415,5.3881,170.7180,0.000,0.000,0.942,0.0000,0.0000,0.0000,0.0000,0.0000,0.0000,0
2026-04-17,12:58:50,6484,1,0.0000,-0.0285,0.0190,0.5590,6.2553,0,1.0000,0,0,37.3525,15.4486,-8.7008,5.0112,170.7203,0.000,0.000,0.939,0.0000,0.0000,0.0000,0.0000,0.0000,0.0000,0
2026-04-17,12:58:50,6519,1,0.0000,-0.0998,0.0323,0.9503,6.2559,0,1.0000,0,0,37.7287,13.2913,-8.6814,2.3511,170.6765,0.000,0.000,0.936,0.0000,0.0000,0.0000,0.0000,0.0000,0.0000,0
2026-04-17,12:58:50,6554,1,0.0000,-0.1108,0.0482,1.4164,6.2567,0,1.0000,0,0,38.2333,15.4179,-8.7907,-1.8085,170.5202,0.000,0.000,0.933,0.0000,0.0000,0.0000,0.0000,0.0000,0.0000,0
2026-04-17,12:58:50,6589,1,0.0000,-0.1737,0.0704,2.0719,6.2577,0,1.0000,0,0,38.5151,7.2197,-9.2295,-9.7713,170.7740,0.000,0.000,0.930,0.0000,0.0000,0.0000,0.0000,0.0000,0.0000,0
2026-04-17,12:58:50,6624,1,0.0000,-0.0247,0.0746,2.1946,6.2584,0,1.0000,0,0,38.4105,-6.2114,-9.8190,-15.7532,170.9676,0.000,0.000,0.953,0.0000,0.0000,0.0000,0.0000,0.0000,0.0000,0
2026-04-17,12:58:50,6659,1,0.0000,0.0127,0.0724,2.1304,6.2583,0,1.0000,0,0,37.5732,-29.6160,-10.3773,-16.3054,171.3832,0.016,0.000,0.985,0.0000,0.0000,0.0000,0.0000,0.0000,0.0000,0
2026-04-17,12:58:50,6694,1,0.0000,0.0929,0.0622,1.8285,6.2580,0,1.0000,0,0,35.9954,-53.2766,-10.7196,-12.3879,171.5771,0.080,0.000,1.000,0.0000,0.0000,0.0000,0.0000,0.0000,0.0000,0
2026-04-17,12:58:50,6729,1,0.0000,0.2588,0.0278,0.8173,6.2566,0,1.0000,0,0,34.3157,-50.6493,-11.1649,-13.8493,171.8277,0.144,0.000,1.000,0.0000,0.0000,0.0000,0.0000,0.0000,0.0000,0
2026-04-17,12:58:50,6764,1,0.0000,0.0905,0.0129,0.3788,6.2554,0,1.0000,0,0,33.4394,-23.4108,-11.4691,-10.4047,172.0188,0.112,0.000,1.000,0.0000,0.0000,0.0000,0.0000,0.0000,0.0000,0
2026-04-17,12:58:50,6799,1,0.0000,0.0148,0.0099,0.2919,6.2550,0,1.0000,0,0,34.3168,34.4186,-11.3909,-1.6358,171.7981,0.080,0.000,0.998,0.0000,0.0000,0.0000,0.0000,0.0000,0.0000,0
2026-04-17,12:58:50,6834,1,0.0000,-0.0041,0.0105,0.3096,6.2550,0,1.0000,0,0,37.4024,100.6774,-11.0529,6.2723,170.7414,0.048,0.000,1.000,0.0000,0.0000,0.0000,0.0000,0.0000,0.0000,0
2026-04-17,12:58:50,6869,1,0.0000,-0.1025,0.0218,0.6401,6.2554,0,1.0000,0,0,38.8840,46.3091,-11.1269,0.1896,170.4014,0.016,0.000,1.000,0.0000,0.0000,0.0000,0.0000,0.0000,0.0000,0
2026-04-17,12:58:51,6904,1,0.0000,-0.3317,0.0727,2.1391,6.2574,0,1.0000,0,0,38.0076,-44.4125,-11.7344,-10.5751,169.6171,0.000,0.000,1.000,0.0000,0.0000,0.0000,0.0000,0.0000,0.0000,0
2026-04-17,12:58:51,6939,1,0.0000,-0.1498,0.1017,2.9918,6.2594,0,1.0000,0,0,34.0625,-76.5062,-12.7118,-20.6555,162.6329,0.048,0.000,1.000,0.0000,0.0000,0.0000,0.0000,0.0000,0.0000,0
2026-04-17,12:58:51,6974,1,0.0000,-0.0407,0.1101,3.2384,6.2603,0,1.0000,0,0,37.1259,56.7115,-12.8217,-6.6310,146.0577,0.064,0.000,1.000,0.0000,0.0000,0.0000,0.0000,0.0000,0.0000,0
2026-04-17,12:58:51,7010,1,0.0000,0.1093,0.0975,2.8672,6.2599,0,1.0000,0,0,37.1745,-8.4814,-12.7806,1.7094,149.7365,0.032,0.000,1.000,0.0000,0.0000,0.0000,0.0000,0.0000,0.0000,0
2026-04-17,12:58:51,7045,1,0.0000,0.1062,0.0762,2.2412,6.2588,0,1.0000,0,0,35.9798,-39.9574,-11.9441,19.3397,153.1385,0.024,0.000,1.000,0.0000,0.0000,0.0000,0.0000,0.0000,0.0000,0
2026-04-17,12:58:51,7081,1,0.0000,-0.0096,0.0778,2.2874,6.2586,0,1.0000,0,0,35.0904,-22.0533,-11.0305,23.4871,154.9530,0.088,0.000,1.000,0.0000,0.0000,0.0000,0.0000,0.0000,0.0000,0
2026-04-17,12:58:51,7117,1,0.0000,0.0422,0.0715,2.1035,6.2584,0,1.0000,0,0,35.2929,14.3154,-11.0781,7.0094,156.8562,0.152,0.000,1.000,0.0000,0.0000,0.0000,0.0000,0.0000,0.0000,0
2026-04-17,12:58:51,7156,1,0.0000,0.0118,0.0703,2.0674,6.2582,0,1.0000,0,0,35.8252,41.9026,-11.5188,1.4634,157.6133,0.176,0.000,1.000,0.0000,0.0000,0.0000,0.0000,0.0000,0.0000,0
2026-04-17,12:58:51,7191,1,0.0000,-0.0151,0.0696,2.0485,6.2581,0,1.0000,0,0,38.6213,93.2803,-11.6934,-2.6500,160.0728,0.144,0.000,1.000,0.0000,0.0000,0.0000,0.0000,0.0000,0.0000,0
2026-04-17,12:58:51,7227,1,0.0000,-0.0401,0.0727,2.1380,6.2583,0,1.0000,0,0,42.8358,133.8223,-11.9040,-4.4613,162.0720,0.112,0.000,1.000,0.0000,0.0000,0.0000,0.0000,0.0000,0.0000,0
2026-04-17,12:58:51,7262,1,0.0000,-0.0261,0.0783,2.3039,6.2585,0,1.0000,0,0,44.7319,61.7199,-12.1301,-5.5464,162.6261,0.080,0.000,1.000,0.0000,0.0000,0.0000,0.0000,0.0000,0.0000,0
2026-04-17,12:58:51,7297,1,0.0000,0.0071,0.0765,2.2496,6.2585,0,1.0000,-29,0,45.3458,16.8093,-12.3614,-6.1527,163.9738,0.048,0.000,1.000,0.0000,0.0000,0.0000,0.0000,0.0000,0.0000,0
2026-04-17,12:58:51,7333,1,-6.1360,0.0368,0.0562,1.6516,6.2583,0,1.0000,-767,1,44.3741,-36.7807,-12.6416,-7.3078,165.2268,0.016,0.000,1.000,0.0000,0.0000,0.0000,0.0000,0.0000,0.0000,0
2026-04-17,12:58:51,7368,1,-6.1360,-0.0447,0.0107,0.3146,6.2584,0,1.0000,-767,1,42.3634,-62.4145,-12.7844,-4.6180,165.9381,0.000,0.000,1.000,0.0000,0.0000,0.0000,0.0000,0.0000,0.0000,0
2026-04-17,12:58:51,7405,1,-7.9840,-0.0265,0.0135,0.3972,6.2587,0,1.0000,-998,1,41.2004,-28.1026,-12.9676,-5.7022,166.4574,0.000,0.000,1.000,0.0000,0.0000,0.0000,0.0000,0.0000,0.0000,0
2026-04-17,12:58:51,7440,1,-7.9840,-0.0284,0.0182,0.5357,6.2588,0,1.0000,-998,1,41.7861,25.3219,-13.2008,-6.0041,167.1608,0.000,0.000,1.000,0.0000,0.0000,0.0000,0.0000,0.0000,0.0000,0
2026-04-17,12:58:51,7476,1,-7.9840,-0.2804,0.0265,0.7780,6.2598,0,1.0000,-998,1,44.4281,100.7310,-13.4217,-6.4934,167.4948,0.000,0.000,1.000,0.0000,0.0000,0.0000,0.0000,0.0000,0.0000,0
2026-04-17,12:58:51,7512,1,-7.9840,-0.6530,0.0583,1.7139,6.2638,0,1.0000,-998,1,46.4253,54.3979,-13.6467,-5.3794,167.9578,0.000,0.000,1.000,0.0000,0.0000,0.0000,0.0000,0.0000,0.0000,0
2026-04-17,12:58:51,7547,1,-7.9840,-0.7243,0.0624,1.8353,6.2691,0,1.0000,-998,1,46.8631,6.4033,-13.6579,-0.6971,167.7064,0.000,0.000,1.000,0.0000,0.0000,0.0000,0.0000,0.0000,0.0000,0
2026-04-17,12:58:51,7582,1,-7.9840,-0.6208,0.0168,0.4933,6.2741,0,1.0000,-998,1,46.0992,-30.4543,-13.3201,7.6753,168.6858,0.000,0.000,1.000,0.0000,0.0000,0.0000,0.0000,0.0000,0.0000,0
2026-04-17,12:58:51,7618,1,-7.9840,-0.0597,0.0376,1.1066,6.2769,0,1.0000,-998,1,45.0486,-30.0364,-12.9544,9.1385,169.3555,0.016,0.000,1.000,0.0000,0.0000,0.0000,0.0000,0.0000,0.0000,0
2026-04-17,12:58:51,7653,1,-7.9840,-0.3102,0.0299,0.8795,6.2783,0,1.0000,-998,1,44.3691,-19.2956,-12.4953,12.6121,169.4037,0.032,0.000,1.000,0.0000,0.0000,0.0000,0.0000,0.0000,0.0000,0
2026-04-17,12:58:51,7688,1,-7.9840,-0.1570,0.0115,0.3373,6.2798,0,1.0000,-998,1,44.0851,-7.8863,-12.0299,14.2779,169.9457,0.048,0.000,1.000,0.0000,0.0000,0.0000,0.0000,0.0000,0.0000,0
2026-04-17,12:58:51,7723,1,-7.9840,-0.0215,0.0079,0.2336,6.2801,0,1.0000,-998,1,44.2186,4.0613,-11.6652,12.2010,170.0223,0.016,0.000,0.999,0.0000,0.0000,0.0000,0.0000,0.0000,0.0000,0
2026-04-17,12:58:51,7759,1,-7.9840,0.0017,0.0140,0.4122,6.2802,0,1.0000,-998,1,45.2127,35.5895,-11.4623,8.2877,170.5634,0.000,0.000,1.000,0.0000,0.0000,0.0000,0.0000,0.0000,0.0000,0
2026-04-17,12:58:51,7794,1,-7.9840,-0.0064,0.0128,0.3764,6.2802,0,1.0000,-998,1,46.5114,26.3026,-11.4020,4.0168,170.9862,0.000,0.000,1.000,0.0000,0.0000,0.0000,0.0000,0.0000,0.0000,0
2026-04-17,12:58:51,7830,1,-7.9840,-0.0576,0.0193,0.5674,6.2804,0,1.0000,-998,1,45.9984,-9.3403,-11.3628,2.0917,171.2394,0.000,0.000,1.000,0.0000,0.0000,0.0000,0.0000,0.0000,0.0000,0
2026-04-17,12:58:51,7866,1,-7.9840,-0.2939,0.0312,0.9171,6.2816,0,1.0000,-998,1,45.8249,-5.3568,-11.1854,4.2764,171.8635,0.000,0.000,1.000,0.0000,0.0000,0.0000,0.0000,0.0000,0.0000,0
2026-04-17,12:58:52,7901,1,-7.9840,-0.5298,0.0448,1.3187,6.2850,0,1.0000,-998,1,46.0414,7.8791,-10.6616,11.6078,173.2837,0.000,0.000,1.000,0.0000,0.0000,0.0000,0.0000,0.0000,0.0000,0
2026-04-17,12:58:52,7940,1,-7.9840,-0.6609,0.0434,1.2759,6.2896,0,1.0000,-998,1,46.0143,2.8479,-9.5601,16.8040,174.6146,0.000,0.000,1.000,0.0000,0.0000,0.0000,0.0000,0.0000,0.0000,0
2026-04-17,12:58:52,7976,1,-7.9840,-0.9554,0.0466,1.3702,6.2964,0,1.0000,-998,1,45.7948,-5.8327,-9.1275,11.2856,174.7208,0.000,0.000,1.000,0.0000,0.0000,0.0000,0.0000,0.0000,0.0000,0
2026-04-17,12:58:52,8011,1,-7.9840,-0.9253,0.0282,0.8292,6.3039,0,1.0000,-998,1,45.2507,-16.9782,-9.3440,-1.8302,173.9287,0.032,0.000,1.000,0.0000,0.0000,0.0000,0.0000,0.0000,0.0000,0
2026-04-17,12:58:52,8047,1,-7.9840,-0.5839,0.0356,1.0458,6.3098,0,1.0000,-998,1,45.3214,5.2473,-9.7099,-7.3510,173.6141,0.072,0.000,1.000,0.0000,0.0000,0.0000,0.0000,0.0000,0.0000,0
2026-04-17,12:58:52,8082,1,-7.9840,-0.8963,0.0313,0.9203,6.3160,0,1.0000,-998,1,45.4582,4.9283,-9.8911,-6.4900,173.5466,0.040,0.000,1.000,0.0000,0.0000,0.0000,0.0000,0.0000,0.0000,0
2026-04-17,12:58:52,8117,1,-7.9840,-0.6344,0.0224,0.6602,6.3212,0,1.0000,-998,1,45.5174,1.6015,-10.0160,-4.6298,173.2394,0.008,0.000,1.000,0.0000,0.0000,0.0000,0.0000,0.0000,0.0000,0
2026-04-17,12:58:52,8153,1,-7.9840,-0.5425,0.0470,1.3817,6.3249,0,1.0000,-998,1,45.5960,1.0669,-9.8943,1.2715,173.1729,0.000,0.000,1.000,0.0000,0.0000,0.0000,0.0000,0.0000,0.0000,0
2026-04-17,12:58:52,8188,1,-7.9840,-0.7729,0.0427,1.2559,6.3293,0,1.0000,-998,1,45.4652,-6.2271,-9.6443,5.2738,173.2626,0.000,0.000,0.998,0.0000,0.0000,0.0000,0.0000,0.0000,0.0000,0
2026-04-17,12:58:52,8224,1,-7.9840,-0.5380,0.0426,1.2542,6.3346,0,1.0000,-998,1,45.4660,1.1798,-9.5394,3.0836,173.2912,0.000,0.000,0.995,0.0000,0.0000,0.0000,0.0000,0.0000,0.0000,0
2026-04-17,12:58:52,8259,1,-7.9840,-0.3744,0.0330,0.9718,6.3364,0,1.0000,-998,1,45.7740,8.5881,-9.4444,2.5309,173.7607,0.000,0.000,0.992,0.0000,0.0000,0.0000,0.0000,0.0000,0.0000,0
2026-04-17,12:58:52,8294,1,-7.9840,-0.6585,0.0386,1.1362,6.3405,0,1.0000,-998,1,45.5375,-7.5464,-9.3063,2.5329,174.5014,0.000,0.000,0.989,0.0000,0.0000,0.0000,0.0000,0.0000,0.0000,0
2026-04-17,12:58:52,8330,1,-7.9840,-0.8238,0.0344,1.0122,6.3463,0,1.0000,-998,1,45.4992,5.2158,-9.0779,4.0187,175.3315,0.000,0.000,0.986,0.0000,0.0000,0.0000,0.0000,0.0000,0.0000,0
2026-04-17,12:58:52,8365,1,-7.9840,-1.1340,0.0504,1.4813,6.3536,0,1.0000,-998,1,45.5744,0.1458,-8.4240,12.3703,176.4140,0.000,0.000,0.982,0.0000,0.0000,0.0000,0.0000,0.0000,0.0000,0
2026-04-17,12:58:52,8400,1,-7.9840,-1.2349,0.0634,1.8646,6.3629,0,1.0000,-998,1,45.1268,-25.0234,-7.6849,16.3562,177.1025,0.000,0.000,0.979,0.0000,0.0000,0.0000,0.0000,0.0000,0.0000,0
2026-04-17,12:58:52,8436,1,-7.9840,-1.1913,0.0557,1.6368,6.3718,0,1.0000,-998,1,44.0906,-20.3195,-7.5029,7.1466,176.9449,0.064,0.000,1.000,0.0000,0.0000,0.0000,0.0000,0.0000,0.0000,0
2026-04-17,12:58:52,8471,1,-7.9840,-0.9708,0.0322,0.9470,6.3798,0,1.0000,-998,1,44.4019,10.5842,-7.7365,-3.8783,176.4653,0.128,0.000,1.000,0.0000,0.0000,0.0000,0.0000,0.0000,0.0000,0
2026-04-17,12:58:52,8507,1,-7.9840,-0.2709,0.0695,2.0454,6.3853,0,1.0000,-998,1,44.5692,3.3759,-8.0213,-7.5634,175.9994,0.096,0.000,1.000,0.0000,0.0000,0.0000,0.0000,0.0000,0.0000,0
2026-04-17,12:58:52,8543,1,-7.9840,-0.5353,0.0717,2.1089,6.3881,0,1.0000,-998,1,43.9728,-12.5435,-8.0069,-2.1905,176.6804,0.088,0.000,1.000,0.0000,0.0000,0.0000,0.0000,0.0000,0.0000,0
2026-04-17,12:58:52,8578,1,-7.9840,-0.6135,0.0676,1.9878,6.3927,0,1.0000,-998,1,43.9738,4.0046,-7.6584,4.6260,177.7247,0.080,0.000,1.000,0.0000,0.0000,0.0000,0.0000,0.0000,0.0000,0
2026-04-17,12:58:52,8613,1,-7.9840,-0.8367,0.0487,1.4320,6.3982,0,1.0000,-998,1,44.3489,14.2894,-7.2160,8.2956,178.1088,0.048,0.000,1.000,0.0000,0.0000,0.0000,0.0000,0.0000,0.0000,0
2026-04-17,12:58:52,8649,1,-7.9840,-1.2714,0.0682,2.0072,6.4073,0,1.0000,-998,1,44.7634,17.1059,-7.0524,3.4721,177.7588,0.016,0.000,1.000,0.0000,0.0000,0.0000,0.0000,0.0000,0.0000,0
2026-04-17,12:58:52,8684,1,-7.9840,-1.1791,0.0577,1.6968,6.4159,0,1.0000,-998,1,45.2793,18.7855,-7.1915,-3.0259,177.1686,0.000,0.000,1.000,0.0000,0.0000,0.0000,0.0000,0.0000,0.0000,0
2026-04-17,12:58:52,8717,1,-7.9840,-1.0071,0.0515,1.5133,6.4207,0,1.0000,-998,1,45.3862,12.1906,-7.1971,-2.3050,177.0258,0.000,0.000,1.000,0.0000,0.0000,0.0000,0.0000,0.0000,0.0000,0
2026-04-17,12:58:52,8753,1,-7.9840,-0.6177,0.0531,1.5622,6.4292,0,1.0000,-998,1,46.0266,22.8376,-7.6415,-9.6725,176.6687,0.000,0.000,1.000,0.0000,0.0000,0.0000,0.0000,0.0000,0.0000,0
2026-04-17,12:58:52,8788,1,-7.9840,-0.5961,0.0370,1.0871,6.4332,0,1.0000,-998,1,46.7504,25.0596,-7.8993,-8.9788,176.6554,0.000,0.000,1.000,0.0000,0.0000,0.0000,0.0000,0.0000,0.0000,0
2026-04-17,12:58:52,8823,1,-7.9840,-0.9503,0.0502,1.4758,6.4397,0,1.0000,-998,1,47.0721,5.2108,-7.7986,-1.6677,170.5734,0.000,0.000,1.000,0.0000,0.0000,0.0000,0.0000,0.0000,0.0000,0
2026-04-17,12:58:52,8859,1,-7.9840,-1.2865,0.0602,1.7701,6.4484,0,1.0000,-998,1,46.1693,-20.4380,-7.1610,10.0614,173.4042,0.000,0.000,1.000,0.0000,0.0000,0.0000,0.0000,0.0000,0.0000,0
2026-04-17,12:58:53,8894,1,-7.9840,-1.2887,0.0537,1.5794,6.4585,0,1.0000,-998,1,45.8270,-2.4258,-6.4199,14.6141,175.4493,0.000,0.000,1.000,0.0000,0.0000,0.0000,0.0000,0.0000,0.0000,0
2026-04-17,12:58:53,8930,1,-7.9840,-1.6499,0.0527,1.5504,6.4701,0,1.0000,-998,1,46.4883,21.2614,-6.2366,5.0584,175.6360,0.000,0.000,1.000,0.0000,0.0000,0.0000,0.0000,0.0000,0.0000,0
2026-04-17,12:58:53,8965,1,-7.9840,-1.1872,0.0696,2.0484,6.4814,0,1.0000,-998,1,47.2708,25.2493,-6.6098,-6.8034,175.1607,0.000,0.000,1.000,0.0000,0.0000,0.0000,0.0000,0.0000,0.0000,0
2026-04-17,12:58:53,9000,1,-7.9840,-1.1056,0.0314,0.9229,6.4894,0,1.0000,-998,1,47.7204,14.8279,-6.9126,-8.2922,174.9514,0.000,0.000,1.000,0.0000,0.0000,0.0000,0.0000,0.0000,0.0000,0
2026-04-17,12:58:53,9035,1,-7.9840,-0.7834,0.0508,1.4942,6.4964,0,1.0000,-998,1,48.3040,18.7967,-6.9233,-3.0867,175.4501,0.000,0.000,1.000,0.0000,0.0000,0.0000,0.0000,0.0000,0.0000,0
2026-04-17,12:58:53,9071,1,-7.9840,-0.8858,0.0415,1.2205,6.5030,0,1.0000,-998,1,48.7038,14.3320,-6.5244,6.3245,176.3421,0.000,0.000,1.000,0.0000,0.0000,0.0000,0.0000,0.0000,0.0000,0
2026-04-17,12:58:53,9106,1,-7.9840,-0.9992,0.0480,1.4128,6.5095,0,1.0000,-998,1,49.0037,9.5338,-5.8303,14.6014,177.6319,0.000,0.000,1.000,0.0000,0.0000,0.0000,0.0000,0.0000,0.0000,0
2026-04-17,12:58:53,9141,1,-7.9840,-1.0552,0.0438,1.2884,6.5178,0,1.0000,-998,1,49.1712,9.6612,-4.9315,21.0634,179.0710,0.000,0.000,1.000,0.0000,0.0000,0.0000,0.0000,0.0000,0.0000,0
2026-04-17,12:58:53,9177,1,-7.9840,-1.3714,0.0686,2.0176,6.5278,0,1.0000,-998,1,49.2853,6.6405,-3.9996,22.2934,179.9157,0.000,0.000,1.000,0.0000,0.0000,0.0000,0.0000,0.0000,0.0000,0
2026-04-17,12:58:53,9213,1,-7.9840,-1.4600,0.0527,1.5510,6.5381,0,1.0000,-998,1,48.8427,-2.4742,-3.5586,13.8504,179.6906,0.000,0.000,1.000,0.0000,0.0000,0.0000,0.0000,0.0000,0.0000,0
2026-04-17,12:58:53,9248,1,-7.9840,-1.2928,0.0360,1.0586,6.5485,0,1.0000,-998,1,49.3235,14.7683,-3.5378,3.9911,178.6446,0.000,0.000,1.000,0.0000,0.0000,0.0000,0.0000,0.0000,0.0000,0
2026-04-17,12:58:53,9284,1,-7.9840,-0.8620,0.0532,1.5650,6.5565,0,1.0000,-998,1,49.8698,15.8253,-3.6811,-1.1203,177.9120,0.000,0.000,1.000,0.0000,0.0000,0.0000,0.0000,0.0000,0.0000,0
2026-04-17,12:58:53,9319,1,-7.9840,-0.9425,0.0340,1.0012,6.5634,0,1.0000,-998,1,50.2022,8.9566,-3.6432,0.4834,177.3726,0.000,0.000,1.000,0.0000,0.0000,0.0000,0.0000,0.0000,0.0000,0
2026-04-17,12:58:53,9355,1,-7.9840,-0.6984,0.0480,1.4122,6.5704,0,1.0000,-998,1,50.4262,9.6060,-3.4197,4.7977,177.4195,0.000,0.000,1.000,0.0000,0.0000,0.0000,0.0000,0.0000,0.0000,0
2026-04-17,12:58:53,9390,1,-7.9840,-0.8163,0.0347,1.0195,6.5767,0,1.0000,-998,1,50.5814,6.2494,-3.0701,8.2874,177.4810,0.000,0.000,1.000,0.0000,0.0000,0.0000,0.0000,0.0000,0.0000,0
2026-04-17,12:58:53,9425,1,-7.9840,-0.6553,0.0369,1.0866,6.5826,0,1.0000,-998,1,50.7857,5.9162,-2.7030,9.3820,177.7982,0.000,0.000,1.000,0.0000,0.0000,0.0000,0.0000,0.0000,0.0000,0
2026-04-17,12:58:53,9461,1,-7.9840,-0.6877,0.0385,1.1326,6.5881,0,1.0000,-998,1,50.8078,3.5582,-2.3329,9.6502,177.9115,0.000,0.000,1.000,0.0000,0.0000,0.0000,0.0000,0.0000,0.0000,0
2026-04-17,12:58:53,9501,1,-7.9840,-0.5815,0.0141,0.4155,6.5933,0,1.0000,-998,1,50.8238,1.7761,-1.9353,9.7616,178.2622,0.000,0.000,1.000,0.0000,0.0000,0.0000,0.0000,0.0000,0.0000,0
2026-04-17,12:58:53,9537,1,-7.9840,-0.2128,0.0441,1.2970,6.5960,0,1.0000,-998,1,50.6740,-11.1634,-1.6705,8.0791,178.2694,0.000,0.000,1.000,0.0000,0.0000,0.0000,0.0000,0.0000,0.0000,0
2026-04-17,12:58:53,9573,1,-7.9840,-0.2703,0.0314,0.9224,6.5981,0,1.0000,-998,1,49.3727,-38.0199,-1.2986,8.9911,178.7407,0.032,0.000,1.000,0.0000,0.0000,0.0000,0.0000,0.0000,0.0000,0
2026-04-17,12:58:53,9608,1,-7.9840,-0.8053,0.0525,1.5452,6.6026,0,1.0000,-998,1,47.1521,-63.0412,-1.2244,4.0428,179.0138,0.096,0.000,1.000,0.0000,0.0000,0.0000,0.0000,0.0000,0.0000,0
2026-04-17,12:58:53,9644,1,-7.9840,-0.7953,0.0423,1.2453,6.6088,0,1.0000,-998,1,44.5413,-58.7086,-1.2257,1.1351,179.4484,0.160,0.000,1.000,0.0000,0.0000,0.0000,0.0000,0.0000,0.0000,0
2026-04-17,12:58:53,9680,1,-7.9840,-1.0176,0.0646,1.8996,6.6162,0,1.0000,-998,1,45.5857,68.3907,-1.4125,-3.4266,178.8410,0.224,0.000,1.000,0.0000,0.0000,0.0000,0.0000,0.0000,0.0000,0
2026-04-17,12:58:53,9715,1,-7.9840,-0.8088,0.0309,0.9103,6.6225,0,1.0000,-998,1,49.0419,93.6334,-1.4593,-2.1870,178.3530,0.192,0.000,1.000,0.0000,0.0000,0.0000,0.0000,0.0000,0.0000,0
2026-04-17,12:58:53,9750,1,-7.9840,-0.4176,0.0516,1.5165,6.6273,0,1.0000,-998,1,51.1968,67.1458,-1.5556,-2.6563,177.9517,0.160,0.000,1.000,0.0000,0.0000,0.0000,0.0000,0.0000,0.0000,0
2026-04-17,12:58:53,9786,1,-7.9840,-0.4843,0.0263,0.7726,6.6301,0,1.0000,-998,1,53.0818,61.1759,-1.6441,-3.0710,177.9525,0.128,0.000,1.000,0.0000,0.0000,0.0000,0.0000,0.0000,0.0000,0
2026-04-17,12:58:53,9821,1,-7.9840,-0.5166,0.0320,0.9405,6.6344,0,1.0000,-998,1,54.6428,50.3015,-1.7269,-2.4381,177.7738,0.096,0.000,1.000,0.0000,0.0000,0.0000,0.0000,0.0000,0.0000,0
2026-04-17,12:58:53,9857,1,-7.9840,-0.5328,0.0293,0.8621,6.6393,0,1.0000,-998,1,56.0235,47.5561,-1.7907,-2.4046,177.8127,0.064,0.000,1.000,0.0000,0.0000,0.0000,0.0000,0.0000,0.0000,0
2026-04-17,12:58:54,9893,1,-7.9840,-0.5985,0.0327,0.9613,6.6433,0,1.0000,-998,1,57.1592,36.3114,-1.8923,-3.3895,177.7391,0.032,0.000,1.000,0.0000,0.0000,0.0000,0.0000,0.0000,0.0000,0
2026-04-17,12:58:54,9928,1,-7.9840,-0.3320,0.0224,0.6584,6.6461,0,1.0000,-998,1,58.1911,33.8718,-1.9599,-2.8231,177.6481,0.000,0.000,1.000,0.0000,0.0000,0.0000,0.0000,0.0000,0.0000,0
2026-04-17,12:58:54,9964,1,-7.9840,-0.0544,0.0238,0.7001,6.6476,0,1.0000,-998,1,59.0926,28.4229,-2.1381,-4.9213,177.8882,0.000,0.000,1.000,0.0000,0.0000,0.0000,0.0000,0.0000,0.0000,0
2026-04-17,12:58:54,9999,1,-7.9840,-0.4297,0.0338,0.9937,6.6495,0,1.0000,-998,1,59.7272,19.9310,-2.1895,-3.4515,178.3701,0.000,0.000,1.000,0.0000,0.0000,0.0000,0.0000,0.0000,0.0000,0
2026-04-17,12:58:54,10034,1,-7.9840,-0.3542,0.0100,0.2950,6.6522,0,1.0000,-998,1,60.3893,22.2831,-2.1892,-1.5589,165.1715,0.000,0.000,0.998,0.0000,0.0000,0.0000,0.0000,0.0000,0.0000,0
2026-04-17,12:58:54,10070,1,-7.9840,-0.0560,0.0176,0.5168,6.6529,0,1.0000,-998,1,60.7735,11.6838,-2.0015,2.3051,168.1169,0.000,0.000,1.000,0.0000,0.0000,0.0000,0.0000,0.0000,0.0000,0
2026-04-17,12:58:54,10106,1,-7.9840,-0.0146,0.0119,0.3510,6.6533,0,1.0000,-998,1,61.1718,14.1555,-1.7478,4.2110,164.4998,0.000,0.000,1.000,0.0000,0.0000,0.0000,0.0000,0.0000,0.0000,0
2026-04-17,12:58:54,10141,1,-7.9840,0.0011,0.0099,0.2921,6.6534,0,1.0000,-998,1,61.4872,10.0831,-1.5697,3.9351,167.3384,0.000,0.000,0.999,0.0000,0.0000,0.0000,0.0000,0.0000,0.0000,0
2026-04-17,12:58:54,10177,1,-7.9840,0.0218,0.0094,0.2751,6.6533,0,1.0000,-998,1,61.8359,12.5537,-1.3799,4.3437,169.5268,0.000,0.000,0.999,0.0000,0.0000,0.0000,0.0000,0.0000,0.0000,0
2026-04-17,12:58:54,10212,1,-7.9840,0.0058,0.0097,0.2857,6.6533,0,1.0000,-998,1,62.1461,8.5535,-1.2470,3.2337,171.1913,0.000,0.000,0.999,0.0000,0.0000,0.0000,0.0000,0.0000,0.0000,0
2026-04-17,12:58:54,10247,1,-7.9840,-0.0019,0.0105,0.3093,6.6533,0,1.0000,-998,1,62.3088,6.7775,-1.0529,4.5722,172.6330,0.000,0.000,1.000,0.0000,0.0000,0.0000,0.0000,0.0000,0.0000,0
2026-04-17,12:58:54,10284,1,-7.9840,-0.0009,0.0115,0.3374,6.6533,0,1.0000,-998,1,62.3993,4.4554,-0.8044,5.5799,173.6163,0.000,0.000,1.000,0.0000,0.0000,0.0000,0.0000,0.0000,0.0000,0
2026-04-17,12:58:54,10316,1,-7.9840,0.0003,0.0104,0.3053,6.6533,0,1.0000,-998,1,62.4790,4.0313,-0.6018,4.6078,174.9157,0.000,0.000,1.000,0.0000,0.0000,0.0000,0.0000,0.0000,0.0000,0
2026-04-17,12:58:54,10351,1,-7.9840,0.0026,0.0106,0.3121,6.6533,0,1.0000,-998,1,62.7442,8.8584,-0.3583,5.8391,176.4103,0.000,0.000,1.000,0.0000,0.0000,0.0000,0.0000,0.0000,0.0000,0
2026-04-17,12:58:54,10387,1,-7.9840,0.0024,0.0087,0.2564,6.6533,0,1.0000,-998,1,62.8202,2.8926,0.0226,8.7517,177.6212,0.000,0.000,0.999,0.0000,0.0000,0.0000,0.0000,0.0000,0.0000,0
2026-04-17,12:58:54,10422,1,-7.9840,0.0011,0.0107,0.3160,6.6533,0,1.0000,-998,1,63.0055,6.6140,0.4609,11.0884,178.6515,0.000,0.000,1.000,0.0000,0.0000,0.0000,0.0000,0.0000,0.0000,0
2026-04-17,12:58:54,10457,1,-7.9840,0.0035,0.0100,0.2946,6.6533,0,1.0000,-998,1,63.0917,1.9004,0.9690,13.2759,179.3694,0.000,0.000,0.999,0.0000,0.0000,0.0000,0.0000,0.0000,0.0000,0
2026-04-17,12:58:54,10493,1,-7.9840,0.0345,0.0054,0.1595,6.6531,0,1.0000,-998,1,63.1973,5.4013,1.4252,12.4141,179.5647,0.000,0.000,0.998,0.0000,0.0000,0.0000,0.0000,0.0000,0.0000,0
2026-04-17,12:58:54,10529,1,-7.9840,0.0216,0.0047,0.1389,6.6530,0,1.0000,-998,1,63.6578,15.7970,1.7176,10.0078,179.1692,0.000,0.000,0.994,0.0000,0.0000,0.0000,0.0000,0.0000,0.0000,0
2026-04-17,12:58:54,10565,1,-7.9840,0.0033,0.0032,0.0928,6.6530,0,1.0000,-998,1,63.6822,2.4128,2.0321,9.6762,178.6274,0.000,0.000,0.991,0.0000,0.0000,0.0000,0.0000,0.0000,0.0000,0
2026-04-17,12:58:54,10602,1,-7.9840,0.0042,0.0048,0.1424,6.6530,0,1.0000,-998,1,63.7681,3.2540,2.3237,9.2649,178.5941,0.000,0.000,0.988,0.0000,0.0000,0.0000,0.0000,0.0000,0.0000,0
2026-04-17,12:58:54,10637,1,-7.9840,0.0076,0.0042,0.1245,6.6530,0,1.0000,-998,1,63.7757,0.4319,2.6422,9.6108,178.2588,0.000,0.000,0.985,0.0000,0.0000,0.0000,0.0000,0.0000,0.0000,0
2026-04-17,12:58:54,10672,1,-7.9840,0.0194,0.0024,0.0705,6.6529,0,1.0000,-998,1,63.9314,8.1795,2.8144,6.8152,170.9935,0.000,0.000,0.982,0.0000,0.0000,0.0000,0.0000,0.0000,0.0000,0
2026-04-17,12:58:54,10708,1,-7.9840,0.0145,-0.0000,0.0000,6.6527,0,1.0000,-998,1,64.4843,13.3582,3.0753,7.8652,172.0317,0.000,0.000,0.978,0.0000,0.0000,0.0000,0.0000,0.0000,0.0000,0
2026-04-17,12:58:54,10744,1,-7.9840,-0.0015,-0.0000,0.0001,6.6527,0,1.0000,-998,1,64.7347,3.3682,3.3715,8.4146,172.7137,0.000,0.000,0.975,0.0000,0.0000,0.0000,0.0000,0.0000,0.0000,0
2026-04-17,12:58:54,10780,1,-7.9840,-0.0006,-0.0013,0.0390,6.6527,0,1.0000,-998,1,64.5178,-8.2631,3.5415,6.3934,173.3566,0.000,0.000,0.972,0.0000,0.0000,0.0000,0.0000,0.0000,0.0000,0
2026-04-17,12:58:54,10816,1,-7.9840,0.0032,0.0008,0.0228,6.6527,0,1.0000,-998,1,64.2562,-7.5451,3.6146,3.4934,173.8712,0.000,0.000,0.969,0.0000,0.0000,0.0000,0.0000,0.0000,0.0000,0
2026-04-17,12:58:54,10851,1,-7.9840,-0.0510,0.0072,0.2130,6.6530,0,1.0000,-998,1,64.0912,-6.1750,3.6150,1.0259,160.4742,0.000,0.000,0.966,0.0000,0.0000,0.0000,0.0000,0.0000,0.0000,0
2026-04-17,12:58:55,10887,1,-7.9840,-0.1102,0.0251,0.7382,6.6538,0,1.0000,-998,1,63.6037,-18.3211,4.0931,10.6301,112.1070,0.000,0.000,0.989,0.0000,0.0000,0.0000,0.0000,0.0000,0.0000,0
2026-04-17,12:58:55,10922,1,-7.9840,-0.3052,0.0302,0.8895,6.6555,0,1.0000,-998,1,62.7823,-24.0787,5.5989,31.2808,73.8012,0.032,0.000,1.000,0.0000,0.0000,0.0000,0.0000,0.0000,0.0000,0
2026-04-17,12:58:55,10957,1,-7.9840,0.0368,0.0157,0.4627,6.6562,0,1.0000,-998,1,62.4202,-9.9143,7.3544,41.9022,93.4428,0.000,0.000,1.000,0.0000,0.0000,0.0000,0.0000,0.0000,0.0000,0
2026-04-17,12:58:55,10993,1,-7.9840,0.0034,0.0151,0.4430,6.6563,0,1.0000,-998,1,62.1506,-8.8339,8.8741,40.6518,108.7059,0.000,0.000,1.000,0.0000,0.0000,0.0000,0.0000,0.0000,0.0000,0
2026-04-17,12:58:55,11028,1,-7.9840,-0.1780,0.0208,0.6105,6.6568,0,1.0000,-998,1,61.9641,-2.3558,9.4151,22.1609,117.2623,0.000,0.000,1.000,0.0000,0.0000,0.0000,0.0000,0.0000,0.0000,0
2026-04-17,12:58:55,11069,1,-7.9840,-0.0897,0.0052,0.1518,6.6585,0,1.0000,-998,1,62.0940,2.2930,9.0936,10.4981,120.9251,0.000,0.000,0.999,0.0000,0.0000,0.0000,0.0000,0.0000,0.0000,0
2026-04-17,12:58:55,11105,1,-7.9840,0.0476,-0.0001,0.0043,6.6586,0,1.0000,-998,1,62.2717,5.1532,9.1033,5.8205,75.7104,0.000,0.000,0.996,0.0000,0.0000,0.0000,0.0000,0.0000,0.0000,0
2026-04-17,12:58:55,11140,1,-7.9840,0.0210,-0.0022,0.0642,6.6584,0,1.0000,-998,1,62.4089,4.4373,9.5451,11.5020,65.3483,0.000,0.000,0.993,0.0000,0.0000,0.0000,0.0000,0.0000,0.0000,0
2026-04-17,12:58:55,11175,1,-7.9840,0.0032,-0.0023,0.0671,6.6584,0,1.0000,-998,1,62.5274,4.0703,9.9842,12.9962,82.1329,0.000,0.000,0.990,0.0000,0.0000,0.0000,0.0000,0.0000,0.0000,0
2026-04-17,12:58:55,11211,1,-7.9840,0.0071,-0.0032,0.0932,6.6584,0,1.0000,-998,1,62.6442,3.6141,10.3694,12.3481,96.3985,0.000,0.000,0.986,0.0000,0.0000,0.0000,0.0000,0.0000,0.0000,0
2026-04-17,12:58:55,11246,1,-7.9840,0.0058,-0.0028,0.0824,6.6584,0,1.0000,-998,1,62.7075,2.6030,10.6917,10.8427,108.5376,0.000,0.000,0.983,0.0000,0.0000,0.0000,0.0000,0.0000,0.0000,0
2026-04-17,12:58:55,11282,1,-7.9840,0.0025,-0.0029,0.0856,6.6584,0,1.0000,-998,1,62.8249,4.0746,10.9860,9.7943,118.8791,0.000,0.000,0.980,0.0000,0.0000,0.0000,0.0000,0.0000,0.0000,0
2026-04-17,12:58:55,11318,1,-7.9840,-0.0060,-0.0043,0.1252,6.6584,0,1.0000,-998,1,62.8291,1.3347,11.2629,9.0909,127.6451,0.000,0.000,0.977,0.0000,0.0000,0.0000,0.0000,0.0000,0.0000,0
2026-04-17,12:58:55,11353,1,-7.9840,-0.0039,-0.0025,0.0733,6.6585,0,1.0000,-998,1,62.9635,3.4647,11.4777,7.4071,135.1243,0.000,0.000,0.974,0.0000,0.0000,0.0000,0.0000,0.0000,0.0000,0
2026-04-17,12:58:55,11388,1,-7.9840,-0.0532,0.0013,0.0392,6.6587,0,1.0000,-998,1,62.9607,-0.2815,11.6024,4.9716,141.4824,0.000,0.000,0.970,0.0000,0.0000,0.0000,0.0000,0.0000,0.0000,0
2026-04-17,12:58:55,11424,1,-7.9840,-0.1314,0.0219,0.6438,6.6594,0,1.0000,-998,1,63.0432,2.9475,11.6732,3.0726,146.9683,0.000,0.000,0.994,0.0000,0.0000,0.0000,0.0000,0.0000,0.0000,0
2026-04-17,12:58:55,11460,1,-7.9840,-0.3266,0.0396,1.1633,6.6615,0,1.0000,-998,1,63.0048,-2.0972,11.7482,2.6802,144.8790,0.000,0.000,1.000,0.0000,0.0000,0.0000,0.0000,0.0000,0.0000,0
2026-04-17,12:58:55,11496,1,-7.9840,-0.4645,0.0430,1.2642,6.6651,0,1.0000,-998,1,63.0583,2.5162,12.0839,7.6309,150.1924,0.000,0.000,1.000,0.0000,0.0000,0.0000,0.0000,0.0000,0.0000,0
2026-04-17,12:58:55,11532,1,-7.9840,-0.5692,0.0322,0.9475,6.6700,0,1.0000,-998,1,63.0027,-1.8894,12.3554,7.3071,154.4169,0.000,0.000,1.000,0.0000,0.0000,0.0000,0.0000,0.0000,0.0000,0
2026-04-17,12:58:55,11567,1,-7.9840,-0.5628,0.0323,0.9509,6.6750,0,1.0000,-998,1,63.0050,4.2745,12.4761,4.8806,157.9158,0.000,0.000,1.000,0.0000,0.0000,0.0000,0.0000,0.0000,0.0000,0
2026-04-17,12:58:55,11602,1,-7.9840,-0.6492,0.0484,1.4231,6.6800,0,1.0000,-998,1,63.1132,4.0174,12.5351,2.6441,161.0871,0.000,0.000,1.000,0.0000,0.0000,0.0000,0.0000,0.0000,0.0000,0
2026-04-17,12:58:55,11638,1,-7.9840,-0.3085,0.0099,0.2909,6.6827,0,1.0000,-998,1,63.0716,0.0443,12.6492,3.1558,163.8675,0.000,0.000,0.999,0.0000,0.0000,0.0000,0.0000,0.0000,0.0000,0
2026-04-17,12:58:55,11673,1,-7.9840,-0.0129,0.0134,0.3928,6.6830,0,1.0000,-998,1,63.0566,-0.5642,12.7157,1.9631,165.8032,0.000,0.000,1.000,0.0000,0.0000,0.0000,0.0000,0.0000,0.0000,0
2026-04-17,12:58:55,11709,1,-7.9840,0.0266,0.0102,0.2995,6.6829,0,1.0000,-998,1,63.1236,2.2842,12.6783,-0.1137,167.6113,0.000,0.000,0.999,0.0000,0.0000,0.0000,0.0000,0.0000,0.0000,0
2026-04-17,12:58:55,11744,1,-7.9840,-0.0020,0.0107,0.3161,6.6828,0,1.0000,-998,1,63.2006,1.5011,12.6999,0.5562,169.1304,0.000,0.000,1.000,0.0000,0.0000,0.0000,0.0000,0.0000,0.0000,0
2026-04-17,12:58:55,11779,1,-7.9840,-0.0081,0.0119,0.3492,6.6829,0,1.0000,-998,1,63.1697,0.3107,12.7112,0.1247,170.3944,0.000,0.000,1.000,0.0000,0.0000,0.0000,0.0000,0.0000,0.0000,0
2026-04-17,12:58:55,11815,1,-7.9840,0.0010,0.0099,0.2920,6.6829,0,1.0000,-998,1,63.2226,1.1238,12.6678,-0.9387,171.5765,0.000,0.000,0.997,0.0000,0.0000,0.0000,0.0000,0.0000,0.0000,0
2026-04-17,12:58:55,11848,1,-7.9840,0.0070,0.0097,0.2863,6.6829,0,1.0000,-998,1,63.2149,0.4996,12.6548,-0.8341,171.8122,0.000,0.000,0.995,0.0000,0.0000,0.0000,0.0000,0.0000,0.0000,0
2026-04-17,12:58:56,11883,1,-7.9840,0.0137,0.0089,0.2614,6.6828,0,1.0000,-998,1,63.2485,1.1138,12.5720,-1.9638,172.7566,0.000,0.000,0.992,0.0000,0.0000,0.0000,0.0000,0.0000,0.0000,0
2026-04-17,12:58:56,11919,1,-7.9840,0.0164,0.0077,0.2252,6.6827,0,1.0000,-998,1,63.2318,-0.4029,12.5491,-1.0862,173.4639,0.000,0.000,0.989,0.0000,0.0000,0.0000,0.0000,0.0000,0.0000,0
2026-04-17,12:58:56,11954,1,-7.9840,-0.0047,0.0058,0.1699,6.6827,0,1.0000,-998,1,63.2669,1.4043,12.5264,-0.7104,174.1391,0.000,0.000,0.986,0.0000,0.0000,0.0000,0.0000,0.0000,0.0000,0
2026-04-17,12:58:56,11989,1,-7.9840,0.0140,0.0059,0.1737,6.6827,0,1.0000,-998,1,63.2414,-1.4439,12.5918,1.0905,174.7002,0.000,0.000,0.982,0.0000,0.0000,0.0000,0.0000,0.0000,0.0000,0
2026-04-17,12:58:56,12024,1,-7.9840,-0.0098,0.0092,0.2719,6.6828,0,1.0000,-998,1,63.3218,3.2297,12.6214,0.6805,175.1636,0.000,0.000,0.979,0.0000,0.0000,0.0000,0.0000,0.0000,0.0000,0
2026-04-17,12:58:56,12060,1,-7.9840,-0.0277,0.0129,0.3796,6.6830,0,1.0000,-998,1,63.3047,-1.7414,12.6142,0.1587,175.5255,0.000,0.000,0.976,0.0000,0.0000,0.0000,0.0000,0.0000,0.0000,0
2026-04-17,12:58:56,12095,1,-7.9840,-0.0192,0.0167,0.4923,6.6832,0,1.0000,-998,1,63.2526,-0.2331,12.6320,0.4080,175.8881,0.000,0.000,0.973,0.0000,0.0000,0.0000,0.0000,0.0000,0.0000,0
2026-04-17,12:58:56,12131,1,-7.9840,0.0033,0.0146,0.4290,6.6834,0,1.0000,-998,1,63.2612,-0.7207,12.5974,-0.7353,176.1798,0.000,0.000,0.970,0.0000,0.0000,0.0000,0.0000,0.0000,0.0000,0
2026-04-17,12:58:56,12168,1,-7.9840,0.0061,0.0134,0.3934,6.6833,0,1.0000,-998,1,63.2346,-0.5953,12.5522,-1.3431,176.3996,0.000,0.000,0.966,0.0000,0.0000,0.0000,0.0000,0.0000,0.0000,0
2026-04-17,12:58:56,12203,1,-7.9840,-0.0019,0.0131,0.3862,6.6833,0,1.0000,-998,1,63.2760,0.5881,12.5051,-1.4458,176.6535,0.000,0.000,0.963,0.0000,0.0000,0.0000,0.0000,0.0000,0.0000,0
2026-04-17,12:58:56,12239,1,-7.9840,0.0029,0.0123,0.3609,6.6833,0,1.0000,-998,1,63.2244,-1.4758,12.4111,-2.6701,176.7624,0.000,0.000,0.960,0.0000,0.0000,0.0000,0.0000,0.0000,0.0000,0
2026-04-17,12:58:56,12274,1,-7.9840,-0.0020,0.0115,0.3397,6.6833,0,1.0000,-998,1,63.2692,1.4655,12.3221,-2.5176,176.9848,0.000,0.000,0.957,0.0000,0.0000,0.0000,0.0000,0.0000,0.0000,0
2026-04-17,12:58:56,12310,1,-7.9840,-0.0030,0.0119,0.3493,6.6832,0,1.0000,-998,1,63.2610,-0.2460,12.2952,-1.6491,177.0593,0.000,0.000,0.954,0.0000,0.0000,0.0000,0.0000,0.0000,0.0000,0
2026-04-17,12:58:56,12345,1,-7.9840,-0.0026,0.0117,0.3427,6.6832,0,1.0000,-998,1,63.3145,1.8790,12.2074,-2.3453,177.2166,0.000,0.000,0.950,0.0000,0.0000,0.0000,0.0000,0.0000,0.0000,0
2026-04-17,12:58:56,12381,1,-7.9840,-0.0139,0.0138,0.4072,6.6833,0,1.0000,-998,1,63.2465,-2.3336,12.1782,-1.2964,177.2311,0.000,0.000,0.947,0.0000,0.0000,0.0000,0.0000,0.0000,0.0000,0
2026-04-17,12:58:56,12416,1,-7.9840,-0.0057,0.0132,0.3895,6.6833,0,1.0000,-998,1,63.2872,1.8444,12.1948,-0.3140,177.2535,0.000,0.000,0.944,0.0000,0.0000,0.0000,0.0000,0.0000,0.0000,0
2026-04-17,12:58:56,12452,1,-7.9840,-0.0107,0.0150,0.4402,6.6833,0,1.0000,-998,1,63.2559,-1.9427,12.1871,-0.2309,177.2898,0.000,0.000,0.941,0.0000,0.0000,0.0000,0.0000,0.0000,0.0000,0
2026-04-17,12:58:56,12487,1,-7.9840,0.0137,0.0128,0.3756,6.6833,0,1.0000,-998,1,63.2614,1.4795,12.2057,0.3046,177.4138,0.000,0.000,0.938,0.0000,0.0000,0.0000,0.0000,0.0000,0.0000,0
2026-04-17,12:58:56,12522,1,-7.9840,-0.0069,0.0139,0.4074,6.6833,0,1.0000,-998,1,63.3062,0.4578,12.2596,1.1861,177.4935,0.000,0.000,0.934,0.0000,0.0000,0.0000,0.0000,0.0000,0.0000,0
2026-04-17,12:58:56,12558,1,-7.9840,-0.0020,0.0135,0.3960,6.6833,0,1.0000,-998,1,63.2554,-0.7576,12.3203,1.6014,177.4389,0.000,0.000,0.931,0.0000,0.0000,0.0000,0.0000,0.0000,0.0000,0
2026-04-17,12:58:56,12593,1,-7.9840,0.0040,0.0122,0.3577,6.6833,0,1.0000,-998,1,63.3234,1.2078,12.3661,1.6783,177.4894,0.000,0.000,0.928,0.0000,0.0000,0.0000,0.0000,0.0000,0.0000,0
2026-04-17,12:58:56,12633,1,-7.9840,0.0021,0.0122,0.3576,6.6833,0,1.0000,-998,1,63.2875,-0.0601,12.4111,1.5150,177.5101,0.000,0.000,0.926,0.0000,0.0000,0.0000,0.0000,0.0000,0.0000,0
2026-04-17,12:58:56,12669,1,-7.9840,0.0171,0.0086,0.2522,6.6832,0,1.0000,-998,1,63.3495,1.6979,12.4409,0.8424,177.5939,0.000,0.000,0.922,0.0000,0.0000,0.0000,0.0000,0.0000,0.0000,0
2026-04-17,12:58:56,12704,1,-7.9840,0.0260,0.0090,0.2638,6.6831,0,1.0000,-998,1,63.2786,-1.8970,12.4693,0.8727,177.5673,0.000,0.000,0.919,0.0000,0.0000,0.0000,0.0000,0.0000,0.0000,0
2026-04-17,12:58:56,12740,1,-7.9840,0.0065,0.0054,0.1588,6.6829,0,1.0000,-998,1,63.2945,0.8060,12.4674,0.1592,177.6339,0.000,0.000,0.916,0.0000,0.0000,0.0000,0.0000,0.0000,0.0000,0
2026-04-17,12:58:56,12775,1,-7.9840,0.0008,0.0056,0.1661,6.6829,0,1.0000,-998,1,63.2658,-1.4169,12.4586,-0.1377,177.6197,0.000,0.000,0.913,0.0000,0.0000,0.0000,0.0000,0.0000,0.0000,0
2026-04-17,12:58:56,12810,1,-7.9840,-0.0029,0.0045,0.1329,6.6828,0,1.0000,-998,1,63.2665,0.8335,12.4738,0.1256,177.6345,0.000,0.000,0.910,0.0000,0.0000,0.0000,0.0000,0.0000,0.0000,0
2026-04-17,12:58:56,12846,1,-7.9840,-0.0181,0.0062,0.1821,6.6829,0,1.0000,-998,1,63.2819,-0.2522,12.4855,0.3779,177.6358,0.000,0.000,0.906,0.0000,0.0000,0.0000,0.0000,0.0000,0.0000,0
2026-04-17,12:58:57,12882,1,-7.9840,0.0054,0.0057,0.1684,6.6828,0,1.0000,-998,1,63.2296,-1.0624,12.5271,0.9542,177.6442,0.000,0.000,0.903,0.0000,0.0000,0.0000,0.0000,0.0000,0.0000,0
2026-04-17,12:58:57,12918,1,-7.9840,0.0032,0.0044,0.1294,6.6828,0,1.0000,-998,1,63.2669,1.2789,12.5739,0.9414,177.7038,0.000,0.000,0.900,0.0000,0.0000,0.0000,0.0000,0.0000,0.0000,0
2026-04-17,12:58:57,12955,1,-7.9840,-0.0082,0.0053,0.1547,6.6829,0,1.0000,-998,1,63.2281,-1.5483,12.5969,0.8073,177.6604,0.000,0.000,0.897,0.0000,0.0000,0.0000,0.0000,0.0000,0.0000,0
2026-04-17,12:58:57,12990,1,-7.9840,0.0060,0.0047,0.1374,6.6828,0,1.0000,-998,1,63.2299,0.4365,12.6373,1.0413,177.7186,0.000,0.000,0.894,0.0000,0.0000,0.0000,0.0000,0.0000,0.0000,0
2026-04-17,12:58:57,13026,1,-7.9840,0.0101,0.0042,0.1248,6.6828,0,1.0000,-998,1,63.2235,-0.6583,12.6277,0.0198,177.6764,0.000,0.000,0.890,0.0000,0.0000,0.0000,0.0000,0.0000,0.0000,0
2026-04-17,12:58:57,13062,1,-7.9840,0.0045,0.0032,0.0940,6.6828,0,1.0000,-998,1,63.2258,0.3938,12.5914,-0.8890,177.7364,0.000,0.000,0.887,0.0000,0.0000,0.0000,0.0000,0.0000,0.0000,0
2026-04-17,12:58:57,13097,1,-7.9840,0.0050,0.0022,0.0635,6.6827,0,1.0000,-998,1,63.2655,1.0972,12.4966,-2.3954,177.7255,0.000,0.000,0.884,0.0000,0.0000,0.0000,0.0000,0.0000,0.0000,0
2026-04-17,12:58:57,13132,1,-7.9840,0.0079,0.0007,0.0203,6.6826,0,1.0000,-998,1,63.2582,0.5398,12.4168,-2.5746,177.6951,0.000,0.000,0.881,0.0000,0.0000,0.0000,0.0000,0.0000,0.0000,0
2026-04-17,12:58:57,13168,1,-7.9840,0.0006,-0.0005,0.0152,6.6826,0,1.0000,-998,1,63.2854,0.6441,12.3299,-2.7169,177.7161,0.000,0.000,0.878,0.0000,0.0000,0.0000,0.0000,0.0000,0.0000,0
2026-04-17,12:58:57,13204,1,-7.9840,0.0150,-0.0012,0.0339,6.6825,0,1.0000,-998,1,63.2885,0.3324,12.2718,-2.1277,177.7197,0.000,0.000,0.874,0.0000,0.0000,0.0000,0.0000,0.0000,0.0000,0
2026-04-17,12:58:57,13240,1,-7.9840,0.0059,0.0006,0.0174,6.6825,0,1.0000,-998,1,63.3210,0.9684,12.2702,-0.8164,177.7262,0.000,0.000,0.871,0.0000,0.0000,0.0000,0.0000,0.0000,0.0000,0
2026-04-17,12:58:57,13276,1,-7.9840,-0.0018,0.0005,0.0134,6.6826,0,1.0000,-998,1,63.3090,-1.0634,12.2390,-0.9531,177.6975,0.000,0.000,0.868,0.0000,0.0000,0.0000,0.0000,0.0000,0.0000,0
2026-04-17,12:58:57,13311,1,-7.9840,-0.0193,0.0001,0.0018,6.6826,0,1.0000,-998,1,63.2935,-0.2915,12.2058,-1.1951,177.7061,0.000,0.000,0.865,0.0000,0.0000,0.0000,0.0000,0.0000,0.0000,0
2026-04-17,12:58:57,13347,1,-7.9840,-0.0013,0.0007,0.0204,6.6827,0,1.0000,-998,1,63.3012,-0.0497,12.1311,-1.7744,177.6953,0.000,0.000,0.862,0.0000,0.0000,0.0000,0.0000,0.0000,0.0000,0
2026-04-17,12:58:57,13382,1,-7.9840,0.0030,0.0021,0.0612,6.6827,0,1.0000,-998,1,63.2842,-0.2039,12.1495,-0.1436,177.7282,0.000,0.000,0.858,0.0000,0.0000,0.0000,0.0000,0.0000,0.0000,0
2026-04-17,12:58:57,13415,1,-7.9840,-0.0021,0.0013,0.0388,6.6827,0,1.0000,-998,1,63.2780,-0.1910,12.1763,0.0754,177.7255,0.000,0.000,0.857,0.0000,0.0000,0.0000,0.0000,0.0000,0.0000,0
2026-04-17,12:58:57,13451,1,-7.9840,0.0048,0.0019,0.0573,6.6827,0,1.0000,-998,1,63.2789,0.3427,12.2389,1.1871,177.7340,0.000,0.000,0.854,0.0000,0.0000,0.0000,0.0000,0.0000,0.0000,0
2026-04-17,12:58:57,13487,1,-7.9840,0.0184,0.0010,0.0303,6.6826,0,1.0000,-998,1,63.2930,0.6768,12.2359,0.0790,177.7467,0.000,0.000,0.850,0.0000,0.0000,0.0000,0.0000,0.0000,0.0000,0
2026-04-17,12:58:57,13522,1,-7.9840,0.0061,0.0003,0.0101,6.6825,0,1.0000,-998,1,63.6259,13.1319,12.2297,0.2278,177.7992,0.000,0.000,0.847,0.0000,0.0000,0.0000,0.0000,0.0000,0.0000,0
2026-04-17,12:58:57,13558,1,-7.9840,-0.0009,-0.0010,0.0286,6.6825,0,1.0000,-998,1,63.7816,1.7220,12.2323,-0.1532,177.7653,0.000,0.000,0.844,0.0000,0.0000,0.0000,0.0000,0.0000,0.0000,0
2026-04-17,12:58:57,13593,1,-7.9840,-0.0025,-0.0014,0.0417,6.6825,0,1.0000,-998,1,63.5920,-5.7408,12.2535,0.4076,177.6789,0.000,0.000,0.841,0.0000,0.0000,0.0000,0.0000,0.0000,0.0000,0
2026-04-17,12:58:57,13628,1,-7.9840,0.0223,-0.0013,0.0372,6.6824,0,1.0000,-998,1,63.4922,-3.3351,12.3115,1.3115,177.7022,0.000,0.000,0.838,0.0000,0.0000,0.0000,0.0000,0.0000,0.0000,0
2026-04-17,12:58:57,13665,1,-7.9840,-0.0020,-0.0046,0.1354,6.6824,0,1.0000,-998,1,63.2982,-5.7848,12.3616,1.4348,177.6314,0.000,0.000,0.834,0.0000,0.0000,0.0000,0.0000,0.0000,0.0000,0
2026-04-17,12:58:57,13701,1,-7.9840,-0.0068,-0.0039,0.1143,6.6824,0,1.0000,-998,1,63.3352,1.6212,12.4530,2.3970,177.6842,0.000,0.000,0.831,0.0000,0.0000,0.0000,0.0000,0.0000,0.0000,0
2026-04-17,12:58:57,13737,1,-7.9840,-0.0037,-0.0038,0.1130,6.6824,0,1.0000,-998,1,63.4054,1.1704,12.5625,3.1249,177.6200,0.000,0.000,0.828,0.0000,0.0000,0.0000,0.0000,0.0000,0.0000,0
2026-04-17,12:58:57,13773,1,-7.9840,-0.0175,-0.0015,0.0444,6.6824,0,1.0000,-998,1,63.5468,3.9621,12.6659,2.7727,177.3044,0.000,0.000,0.825,0.0000,0.0000,0.0000,0.0000,0.0000,0.0000,0
2026-04-17,12:58:57,13808,1,-7.9840,-0.0204,-0.0002,0.0068,6.6826,0,1.0000,-998,1,63.7574,4.7831,12.5172,-2.2577,175.9003,0.000,0.000,0.822,0.0000,0.0000,0.0000,0.0000,0.0000,0.0000,0
2026-04-17,12:58:57,13844,1,-7.9840,0.0053,0.0013,0.0369,6.6827,0,1.0000,-998,1,63.7268,-6.0973,11.8889,-12.4483,173.6148,0.000,0.000,0.818,0.0000,0.0000,0.0000,0.0000,0.0000,0.0000,0
2026-04-17,12:58:58,13881,1,-7.9840,0.0080,0.0003,0.0084,6.6826,0,1.0000,-998,1,63.3358,-11.2911,11.0301,-18.4771,157.9569,0.000,0.000,0.815,0.0000,0.0000,0.0000,0.0000,0.0000,0.0000,0
2026-04-17,12:58:58,13916,1,-7.9840,0.0255,-0.0013,0.0385,6.6824,0,1.0000,-998,1,63.0616,-9.4031,10.6245,-12.8381,106.7454,0.000,0.000,0.812,0.0000,0.0000,0.0000,0.0000,0.0000,0.0000,0
2026-04-17,12:58:58,13952,1,-7.9840,0.0332,-0.0080,0.2341,6.6822,0,1.0000,-998,1,62.7084,-12.3606,10.6542,-2.7246,64.1113,0.000,0.000,0.809,0.0000,0.0000,0.0000,0.0000,0.0000,0.0000,0
2026-04-17,12:58:58,13988,1,-7.9840,0.0080,-0.0080,0.2364,6.6822,0,1.0000,-998,1,62.4464,-7.7141,10.7814,1.1889,80.9783,0.000,0.000,0.806,0.0000,0.0000,0.0000,0.0000,0.0000,0.0000,0
2026-04-17,12:58:58,14025,1,-7.9840,-0.0050,-0.0086,0.2536,6.6822,0,1.0000,-998,1,62.2322,-7.0756,10.7962,0.3751,95.2958,0.000,0.000,0.802,0.0000,0.0000,0.0000,0.0000,0.0000,0.0000,0
2026-04-17,12:58:58,14061,1,-7.9840,-0.0061,-0.0077,0.2252,6.6822,0,1.0000,-998,1,62.0304,-5.9521,10.7455,-1.2034,107.5152,0.000,0.000,0.799,0.0000,0.0000,0.0000,0.0000,0.0000,0.0000,0
2026-04-17,12:58:58,14096,1,-7.9840,-0.0015,-0.0080,0.2357,6.6821,0,1.0000,-998,1,61.9000,-4.0520,10.6246,-2.9365,117.9059,0.000,0.000,0.796,0.0000,0.0000,0.0000,0.0000,0.0000,0.0000,0
2026-04-17,12:58:58,14131,1,-7.9840,-0.0032,-0.0083,0.2432,6.6821,0,1.0000,-998,1,61.7329,-5.1126,10.5539,-2.3037,126.7183,0.000,0.000,0.793,0.0000,0.0000,0.0000,0.0000,0.0000,0.0000,0
2026-04-17,12:58:58,14166,1,-7.9840,-0.0120,-0.0080,0.2342,6.6822,0,1.0000,-998,1,61.6414,-2.9429,10.4804,-2.6259,134.2234,0.000,0.000,0.790,0.0000,0.0000,0.0000,0.0000,0.0000,0.0000,0
2026-04-17,12:58:58,14203,1,-7.9840,0.0024,-0.0083,0.2453,6.6821,0,1.0000,-998,1,61.5959,-1.9257,10.4557,-2.0426,136.7309,0.000,0.000,0.787,0.0000,0.0000,0.0000,0.0000,0.0000,0.0000,0
2026-04-17,12:58:58,14239,1,-7.9840,0.0078,-0.0086,0.2516,6.6821,0,1.0000,-998,1,61.5217,-1.9322,10.3322,-3.1541,142.7852,0.000,0.000,0.784,0.0000,0.0000,0.0000,0.0000,0.0000,0.0000,0
2026-04-17,12:58:58,14275,1,-7.9840,-0.0013,-0.0093,0.2724,6.6821,0,1.0000,-998,1,61.4252,-3.1623,10.3049,-1.6867,147.8691,0.000,0.000,0.781,0.0000,0.0000,0.0000,0.0000,0.0000,0.0000,0
2026-04-17,12:58:58,14310,1,-7.9840,0.0001,-0.0083,0.2440,6.6821,0,1.0000,-998,1,61.3556,-1.7220,10.1981,-2.8328,152.2159,0.000,0.000,0.778,0.0000,0.0000,0.0000,0.0000,0.0000,0.0000,0
2026-04-17,12:58:58,14345,1,-7.9840,-0.0004,-0.0077,0.2259,6.6821,0,1.0000,-998,1,61.3092,-1.7750,10.1384,-2.3304,155.8654,0.000,0.000,0.774,0.0000,0.0000,0.0000,0.0000,0.0000,0.0000,0
2026-04-17,12:58:58,14381,1,-7.9840,0.0016,-0.0087,0.2550,6.6821,0,1.0000,-998,1,61.2656,-1.1073,10.0816,-1.9019,159.0087,0.000,0.000,0.771,0.0000,0.0000,0.0000,0.0000,0.0000,0.0000,0
2026-04-17,12:58:58,14416,1,-7.9840,-0.0002,-0.0080,0.2349,6.6821,0,1.0000,-998,1,61.2180,-1.4123,10.0900,-0.4234,161.7164,0.000,0.000,0.768,0.0000,0.0000,0.0000,0.0000,0.0000,0.0000,0
2026-04-17,12:58:58,14451,1,-7.9840,0.0166,-0.0086,0.2523,6.6821,0,1.0000,-998,1,61.1721,-1.5845,10.1046,0.0560,163.9892,0.000,0.000,0.765,0.0000,0.0000,0.0000,0.0000,0.0000,0.0000,0
2026-04-17,12:58:58,14487,1,-7.9840,0.0008,-0.0093,0.2724,6.6821,0,1.0000,-998,1,61.1414,-1.2337,10.1273,0.4872,165.9777,0.000,0.000,0.762,0.0000,0.0000,0.0000,0.0000,0.0000,0.0000,0
2026-04-17,12:58:58,14522,1,-7.9840,0.0017,-0.0083,0.2440,6.6821,0,1.0000,-998,1,61.1101,-0.8353,10.1273,-0.0578,167.5724,0.000,0.000,0.758,0.0000,0.0000,0.0000,0.0000,0.0000,0.0000,0
2026-04-17,12:58:58,14557,1,-7.9840,0.0080,-0.0087,0.2550,6.6821,0,1.0000,-998,1,61.0995,0.3312,10.0347,-1.9773,169.0065,0.000,0.000,0.755,0.0000,0.0000,0.0000,0.0000,0.0000,0.0000,0
2026-04-17,12:58:58,14593,1,-7.9840,0.0065,-0.0077,0.2259,6.6821,0,1.0000,-998,1,61.0772,-0.7581,9.9627,-2.0832,170.1852,0.000,0.000,0.752,0.0000,0.0000,0.0000,0.0000,0.0000,0.0000,0
2026-04-17,12:58:58,14628,1,-7.9840,-0.0089,-0.0070,0.2058,6.6821,0,1.0000,-998,1,61.0729,-0.1806,9.9289,-1.5463,171.1966,0.000,0.000,0.749,0.0000,0.0000,0.0000,0.0000,0.0000,0.0000,0
2026-04-17,12:58:58,14663,1,-7.9840,-0.0031,-0.0086,0.2537,6.6821,0,1.0000,-998,1,61.0652,-0.5775,9.8942,-1.2656,172.1097,0.000,0.000,0.746,0.0000,0.0000,0.0000,0.0000,0.0000,0.0000,0
2026-04-17,12:58:58,14699,1,-7.9840,-0.0077,-0.0089,0.2627,6.6821,0,1.0000,-998,1,61.0415,-0.4090,9.8659,-0.9737,172.8589,0.000,0.000,0.742,0.0000,0.0000,0.0000,0.0000,0.0000,0.0000,0
2026-04-17,12:58:58,14734,1,-7.9840,-0.0004,-0.0096,0.2814,6.6821,0,1.0000,-998,1,61.0397,-0.3860,9.8934,0.2830,173.4731,0.000,0.000,0.739,0.0000,0.0000,0.0000,0.0000,0.0000,0.0000,0
2026-04-17,12:58:58,14769,1,-7.9840,-0.0095,-0.0080,0.2342,6.6821,0,1.0000,-998,1,61.0143,-0.3647,9.9334,0.7841,173.9739,0.000,0.000,0.736,0.0000,0.0000,0.0000,0.0000,0.0000,0.0000,0
2026-04-17,12:58:58,14805,1,-7.9840,0.0042,-0.0080,0.2343,6.6821,0,1.0000,-998,1,61.0266,0.4890,9.9192,-0.1631,174.4443,0.000,0.000,0.733,0.0000,0.0000,0.0000,0.0000,0.0000,0.0000,0
2026-04-17,12:58:58,14840,1,-7.9840,-0.0044,-0.0092,0.2717,6.6821,0,1.0000,-998,1,61.0138,-0.0254,9.9061,-0.2477,174.8008,0.000,0.000,0.730,0.0000,0.0000,0.0000,0.0000,0.0000,0.0000,0
2026-04-17,12:58:58,14875,1,-7.9840,-0.0052,-0.0093,0.2731,6.6821,0,1.0000,-998,1,61.0344,0.8553,9.9076,-0.0622,175.1669,0.000,0.000,0.726,0.0000,0.0000,0.0000,0.0000,0.0000,0.0000,0
2026-04-17,12:58:59,14911,1,-7.9840,0.0035,-0.0080,0.2349,6.6821,0,1.0000,-998,1,61.0162,-0.1991,9.9014,-0.1223,175.4389,0.000,0.000,0.723,0.0000,0.0000,0.0000,0.0000,0.0000,0.0000,0
2026-04-17,12:58:59,14946,1,-7.9840,-0.0019,-0.0083,0.2439,6.6821,0,1.0000,-998,1,61.0307,0.5296,9.8774,-0.7138,175.6654,0.000,0.000,0.720,0.0000,0.0000,0.0000,0.0000,0.0000,0.0000,0
2026-04-17,12:58:59,14984,1,-7.9840,-0.0065,-0.0077,0.2252,6.6821,0,1.0000,-998,1,61.0359,0.2630,9.8781,-0.4878,175.7539,0.000,0.000,0.718,0.0000,0.0000,0.0000,0.0000,0.0000,0.0000,0
2026-04-17,12:58:59,15019,1,-7.9840,-0.0075,-0.0087,0.2551,6.6821,0,1.0000,-998,1,61.0431,0.4668,9.8020,-1.8742,175.9310,0.000,0.000,0.714,0.0000,0.0000,0.0000,0.0000,0.0000,0.0000,0
2026-04-17,12:58:59,15055,1,-7.9840,-0.0067,-0.0087,0.2551,6.6822,0,1.0000,-998,1,61.2935,14.6973,9.7820,-0.9278,176.1059,0.000,0.000,0.711,0.0000,0.0000,0.0000,0.0000,0.0000,0.0000,0
2026-04-17,12:58:59,15091,1,-7.9840,-0.0124,-0.0083,0.2431,6.6822,0,1.0000,-998,1,61.8993,17.3132,9.8391,0.5883,176.0675,0.000,0.000,0.708,0.0000,0.0000,0.0000,0.0000,0.0000,0.0000,0
2026-04-17,12:58:59,15126,1,-7.9840,-0.0298,-0.0039,0.1141,6.6823,0,1.0000,-998,1,63.3972,53.5922,9.7597,-1.7855,173.5556,0.000,0.000,0.705,0.0000,0.0000,0.0000,0.0000,0.0000,0.0000,0
2026-04-17,12:58:59,15161,1,-7.9840,-0.2507,0.0351,1.0325,6.6837,0,1.0000,-998,1,67.2045,105.2232,8.0460,-36.3626,158.4767,0.000,0.000,0.702,0.0000,0.0000,0.0000,0.0000,0.0000,0.0000,0
2026-04-17,12:58:59,15197,1,-7.9840,-0.4539,0.0749,2.2020,6.6873,0,1.0000,-998,1,70.9962,66.9030,3.9348,-83.7887,137.1429,0.000,0.000,0.734,0.0000,0.0000,0.0000,0.0000,0.0000,0.0000,0
2026-04-17,12:58:59,15232,1,-7.9840,-0.9307,0.0963,2.8327,6.6909,0,1.0000,-998,1,68.3277,-109.7018,2.1201,-51.8156,88.0440,0.000,0.000,0.766,0.0000,0.0000,0.0000,0.0000,0.0000,0.0000,0
2026-04-17,12:58:59,15267,1,-7.9840,-0.4713,0.0645,1.8974,6.6963,0,1.0000,-998,1,64.4570,-123.9872,4.4244,28.1700,64.6904,0.064,0.000,0.798,0.0000,0.0000,0.0000,0.0000,0.0000,0.0000,0
2026-04-17,12:58:59,15303,1,-7.9840,-0.2268,0.0355,1.0454,6.6985,0,1.0000,-998,1,61.6128,-99.0246,6.0744,34.9876,82.3763,0.080,0.000,0.812,0.0000,0.0000,0.0000,0.0000,0.0000,0.0000,0
2026-04-17,12:58:59,15339,1,-7.9840,0.0129,0.0148,0.4342,6.6981,0,1.0000,-998,1,59.6475,-77.7441,5.9347,7.6264,55.5838,0.048,0.000,0.835,0.0000,0.0000,0.0000,0.0000,0.0000,0.0000,0
2026-04-17,12:58:59,15374,1,-7.9840,0.0107,0.0136,0.4006,6.6981,0,1.0000,-998,1,56.5092,-93.5652,5.8627,3.1021,72.8164,0.016,0.000,0.867,0.0000,0.0000,0.0000,0.0000,0.0000,0.0000,0
2026-04-17,12:58:59,15410,1,-5.5280,0.0049,0.0120,0.3536,6.6981,0,1.0000,-691,1,54.5512,-65.5011,6.8489,18.7551,87.3928,0.000,0.000,0.899,0.0000,0.0000,0.0000,0.0000,0.0000,0.0000,0
2026-04-17,12:58:59,15446,1,-5.5280,0.0063,0.0123,0.3614,6.6981,0,1.0000,-691,1,51.9710,-90.8174,7.7151,19.7301,100.8981,0.000,0.000,0.931,0.0000,0.0000,0.0000,0.0000,0.0000,0.0000,0
2026-04-17,12:58:59,15481,1,-5.5280,-0.0088,0.0131,0.3848,6.6981,0,1.0000,-691,1,49.6612,-66.4235,7.7377,5.1994,112.3672,0.000,0.000,0.963,0.0000,0.0000,0.0000,0.0000,0.0000,0.0000,0
2026-04-17,12:58:59,15517,1,-0.9760,-0.0087,0.0133,0.3900,6.6981,0,1.0000,-122,1,48.2090,-49.7685,7.6053,0.0909,121.3911,0.000,0.000,0.995,0.0000,0.0000,0.0000,0.0000,0.0000,0.0000,0
2026-04-17,12:58:59,15552,1,-0.9760,0.0113,0.0113,0.3328,6.6981,0,1.0000,-122,1,46.2602,-61.7896,7.6168,-0.1652,129.0855,0.000,0.000,1.000,0.0000,0.0000,0.0000,0.0000,0.0000,0.0000,0
2026-04-17,12:58:59,15587,1,-0.9760,-0.0051,0.0122,0.3588,6.6981,0,1.0000,-122,1,45.0606,-36.5517,7.6337,0.9903,136.0577,0.000,0.000,1.000,0.0000,0.0000,0.0000,0.0000,0.0000,0.0000,0
2026-04-17,12:58:59,15623,1,0.0000,-0.0021,0.0129,0.3796,6.6981,0,1.0000,0,1,43.8772,-41.4052,7.8411,4.1618,141.4370,0.000,0.000,1.000,0.0000,0.0000,0.0000,0.0000,0.0000,0.0000,0
2026-04-17,12:58:59,15658,1,0.0000,-0.0039,0.0129,0.3796,6.6981,0,1.0000,0,1,42.8022,-31.9387,7.9214,3.3594,146.5286,0.000,0.000,1.000,0.0000,0.0000,0.0000,0.0000,0.0000,0.0000,0
2026-04-17,12:58:59,15694,1,0.0000,-0.0017,0.0128,0.3770,6.6981,0,1.0000,0,1,42.1314,-24.2925,8.1387,5.3579,150.4666,0.000,0.000,1.000,0.0000,0.0000,0.0000,0.0000,0.0000,0.0000,0
2026-04-17,12:58:59,15730,1,0.0000,-0.0106,0.0127,0.3744,6.6981,0,1.0000,0,1,41.2623,-26.3056,8.1896,2.7783,154.0539,0.000,0.000,1.000,0.0000,0.0000,0.0000,0.0000,0.0000,0.0000,0
2026-04-17,12:58:59,15770,1,0.0000,-0.0081,0.0140,0.4108,6.6981,0,1.0000,0,1,41.0510,-14.1422,8.2498,2.3579,155.2315,0.000,0.000,1.000,0.0000,0.0000,0.0000,0.0000,0.0000,0.0000,0
2026-04-17,12:58:59,15805,1,0.0000,0.0094,0.0118,0.3459,6.6981,0,1.0000,0,1,40.4185,-19.9065,8.3235,2.3114,157.9944,0.000,0.000,1.000,0.0000,0.0000,0.0000,0.0000,0.0000,0.0000,0
2026-04-17,12:58:59,15841,1,0.0000,0.0075,0.0123,0.3614,6.6981,0,1.0000,0,1,40.0018,-12.8769,8.4205,2.7237,160.4547,0.000,0.000,1.000,0.0000,0.0000,0.0000,0.0000,0.0000,0.0000,0
2026-04-17,12:58:59,15876,1,0.0000,-0.0356,0.0162,0.4759,6.6983,0,1.0000,0,1,40.1210,-0.9563,8.4286,1.0348,162.0324,0.000,0.000,1.000,0.0000,0.0000,0.0000,0.0000,0.0000,0.0000,0
2026-04-17,12:59:00,15911,1,0.0000,0.0091,0.0148,0.4341,6.6982,0,1.0000,0,1,39.2975,-21.6939,8.4000,0.0692,163.9206,0.000,0.000,1.000,0.0000,0.0000,0.0000,0.0000,0.0000,0.0000,0
2026-04-17,12:59:00,15946,1,0.0000,0.0170,0.0135,0.3979,6.6982,0,1.0000,0,1,39.2616,-1.1452,8.4444,0.9476,165.3897,0.000,0.000,1.000,0.0000,0.0000,0.0000,0.0000,0.0000,0.0000,0
2026-04-17,12:59:00,15981,1,0.0000,-0.0131,0.0151,0.4445,6.6982,0,1.0000,0,1,38.8059,-16.2896,8.5400,2.0514,166.6293,0.000,0.000,1.000,0.0000,0.0000,0.0000,0.0000,0.0000,0.0000,0
2026-04-17,12:59:00,16016,1,0.0000,-0.2002,0.0387,1.1378,6.6989,0,1.0000,0,1,38.9760,10.3165,8.8397,7.6369,140.8935,0.016,0.000,1.000,0.0000,0.0000,0.0000,0.0000,0.0000,0.0000,0
2026-04-17,12:59:00,16051,1,0.0000,-0.3320,0.0939,2.7631,6.7017,0,1.0000,0,1,39.3051,2.2931,11.1890,49.5971,104.5550,0.000,0.000,1.000,0.0000,0.0000,0.0000,0.0000,0.0000,0.0000,0
2026-04-17,12:59:00,16086,1,0.0000,0.0487,0.0650,1.9128,6.7011,0,1.0000,0,1,37.5983,-57.5470,13.2768,48.1322,114.6163,0.032,0.000,1.000,0.0000,0.0000,0.0000,0.0000,0.0000,0.0000,0
2026-04-17,12:59:00,16122,1,0.0000,0.0116,0.0490,1.4411,6.7000,0,1.0000,0,0,35.5480,-41.0540,12.3268,-5.7159,121.0511,0.096,0.000,1.000,0.0000,0.0000,0.0000,0.0000,0.0000,0.0000,0
2026-04-17,12:59:00,16157,1,0.0000,0.0226,0.0540,1.5887,6.7003,0,1.0000,0,0,36.8899,29.3836,9.4291,-55.4259,118.8157,0.160,0.000,1.000,0.0000,0.0000,0.0000,0.0000,0.0000,0.0000,0
2026-04-17,12:59:00,16192,1,0.0000,-0.0339,0.0698,2.0520,6.7011,0,1.0000,0,0,36.3015,-29.2959,8.4474,-30.1325,74.5729,0.200,0.000,1.000,0.0000,0.0000,0.0000,0.0000,0.0000,0.0000,0
2026-04-17,12:59:00,16228,1,0.0000,0.0030,0.0653,1.9220,6.7009,0,1.0000,0,0,36.5168,18.9277,9.5390,9.4200,37.5100,0.264,0.000,1.000,0.0000,0.0000,0.0000,0.0000,0.0000,0.0000,0
2026-04-17,12:59:00,16263,1,0.0000,0.0403,0.0615,1.8098,6.7008,0,1.0000,0,0,36.1361,-23.8150,10.5958,22.1904,52.5642,0.232,0.000,1.000,0.0000,0.0000,0.0000,0.0000,0.0000,0.0000,0
2026-04-17,12:59:00,16298,1,0.0000,0.0196,0.0593,1.7429,6.7007,0,1.0000,0,0,35.9470,8.0635,11.1611,16.0808,70.6519,0.296,0.000,1.000,0.0000,0.0000,0.0000,0.0000,0.0000,0.0000,0
2026-04-17,12:59:00,16334,1,-0.1680,-0.0131,0.0554,1.6288,6.7007,0,1.0000,-21,1,36.2579,-4.9160,11.2390,6.4651,86.3258,0.264,0.000,1.000,0.0000,0.0000,0.0000,0.0000,0.0000,0.0000,0
2026-04-17,12:59:00,16369,1,-0.1680,-0.1085,0.0409,1.2030,6.7011,0,1.0000,-21,1,35.9045,2.8770,11.1816,-0.1758,98.7645,0.256,0.000,1.000,0.0000,0.0000,0.0000,0.0000,0.0000,0.0000,0
2026-04-17,12:59:00,16404,1,-0.1680,-0.1711,0.0398,1.1709,6.7021,0,1.0000,-21,1,36.5797,10.7835,10.7598,-7.4467,110.2146,0.224,0.000,1.000,0.0000,0.0000,0.0000,0.0000,0.0000,0.0000,0
2026-04-17,12:59:00,16440,1,-0.1600,-0.1256,0.0472,1.3889,6.7038,0,1.0000,-20,1,35.9981,-11.8989,10.8481,-1.2400,120.2836,0.192,0.000,1.000,0.0000,0.0000,0.0000,0.0000,0.0000,0.0000,0
2026-04-17,12:59:00,16475,1,-0.1600,-0.0874,0.0328,0.9635,6.7044,0,1.0000,-20,1,36.4848,12.7512,10.9816,0.9827,129.1942,0.160,0.000,1.000,0.0000,0.0000,0.0000,0.0000,0.0000,0.0000,0
2026-04-17,12:59:00,16510,1,-0.1600,-0.2959,0.0500,1.4692,6.7059,0,1.0000,-20,1,36.1186,-11.2871,11.1971,3.3865,136.0071,0.128,0.000,1.000,0.0000,0.0000,0.0000,0.0000,0.0000,0.0000,0
2026-04-17,12:59:00,16548,1,-0.1680,-0.3076,0.0702,2.0646,6.7082,0,1.0000,-21,1,36.1390,-4.4596,11.5467,5.1438,138.5926,0.104,0.000,1.000,0.0000,0.0000,0.0000,0.0000,0.0000,0.0000,0
2026-04-17,12:59:00,16583,1,-0.1680,-0.0976,0.0585,1.7217,6.7095,0,1.0000,-21,1,35.8465,-12.9480,11.4947,0.3892,144.1679,0.096,0.000,1.000,0.0000,0.0000,0.0000,0.0000,0.0000,0.0000,0
2026-04-17,12:59:00,16620,1,-0.7680,-0.1908,0.0618,1.8165,6.7108,0,1.0000,-96,1,36.0921,12.9155,11.7823,4.7689,149.2526,0.112,0.000,1.000,0.0000,0.0000,0.0000,0.0000,0.0000,0.0000,0
2026-04-17,12:59:00,16655,1,-6.4480,-1.0102,0.0630,1.8535,6.7152,0,1.0000,-806,1,35.7722,-13.1843,12.1206,7.2169,153.1285,0.080,0.000,1.000,0.0000,0.0000,0.0000,0.0000,0.0000,0.0000,0
2026-04-17,12:59:00,16691,1,-6.4480,-0.0465,0.0264,0.7758,6.7160,0,1.0000,-806,1,36.1921,8.5321,12.2337,4.2113,156.2323,0.048,0.000,1.000,0.0000,0.0000,0.0000,0.0000,0.0000,0.0000,0
2026-04-17,12:59:00,16727,1,-6.7600,-0.1280,0.0150,0.4406,6.7172,0,1.0000,-845,1,36.1008,-4.5352,12.3845,4.9431,158.8700,0.016,0.000,1.000,0.0000,0.0000,0.0000,0.0000,0.0000,0.0000,0
2026-04-17,12:59:00,16762,1,-6.7600,-0.0271,0.0121,0.3557,6.7175,0,1.0000,-845,1,36.4188,12.2490,12.8199,10.4040,161.6189,0.000,0.000,1.000,0.0000,0.0000,0.0000,0.0000,0.0000,0.0000,0
2026-04-17,12:59:00,16797,1,-6.7600,-0.0534,0.0154,0.4532,6.7178,0,1.0000,-845,1,36.2462,-11.4974,13.5144,16.9561,164.1738,0.000,0.000,1.000,0.0000,0.0000,0.0000,0.0000,0.0000,0.0000,0
2026-04-17,12:59:00,16834,1,-6.2480,-0.0268,0.0120,0.3537,6.7181,0,1.0000,-781,1,36.2186,5.2801,14.2945,19.3921,166.2135,0.000,0.000,1.000,0.0000,0.0000,0.0000,0.0000,0.0000,0.0000,0
2026-04-17,12:59:00,16869,1,-6.2480,-0.0206,0.0113,0.3333,6.7183,0,1.0000,-781,1,36.2818,-2.8536,14.7100,13.5463,167.6166,0.000,0.000,1.000,0.0000,0.0000,0.0000,0.0000,0.0000,0.0000,0
2026-04-17,12:59:01,16904,1,-6.2480,0.0003,0.0138,0.4066,6.7183,0,1.0000,-781,1,36.2149,2.9870,14.9332,8.6488,168.5660,0.000,0.000,1.000,0.0000,0.0000,0.0000,0.0000,0.0000,0.0000,0
2026-04-17,12:59:01,16940,1,-6.2560,0.0155,0.0118,0.3480,6.7182,0,1.0000,-782,1,36.4518,2.4871,15.0267,4.8154,169.4171,0.000,0.000,1.000,0.0000,0.0000,0.0000,0.0000,0.0000,0.0000,0
2026-04-17,12:59:01,16976,1,-6.2560,-0.0141,0.0134,0.3950,6.7182,0,1.0000,-782,1,36.4436,3.3322,15.1880,4.8918,170.0827,0.000,0.000,1.000,0.0000,0.0000,0.0000,0.0000,0.0000,0.0000,0
2026-04-17,12:59:01,17011,1,-6.2560,-0.0080,0.0138,0.4055,6.7183,0,1.0000,-782,1,36.7017,4.7542,15.3320,4.3855,170.7702,0.000,0.000,1.000,0.0000,0.0000,0.0000,0.0000,0.0000,0.0000,0
2026-04-17,12:59:01,17048,1,-6.2640,-0.0156,0.0143,0.4214,6.7183,0,1.0000,-783,1,36.5118,-2.6748,15.3977,2.4492,171.3989,0.000,0.000,1.000,0.0000,0.0000,0.0000,0.0000,0.0000,0.0000,0
2026-04-17,12:59:01,17083,1,-6.2640,-0.0090,0.0149,0.4396,6.7184,0,1.0000,-783,1,36.7317,5.6380,15.4907,2.9216,172.0072,0.000,0.000,1.000,0.0000,0.0000,0.0000,0.0000,0.0000,0.0000,0
2026-04-17,12:59:01,17118,1,-6.2640,-0.0287,0.0104,0.3067,6.7185,0,1.0000,-783,1,36.5828,-3.6802,15.7086,4.9210,172.4016,0.000,0.000,1.000,0.0000,0.0000,0.0000,0.0000,0.0000,0.0000,0
2026-04-17,12:59:01,17154,1,-6.2640,-0.0129,0.0133,0.3903,6.7186,0,1.0000,-783,1,36.7477,5.4224,15.7878,2.8841,172.6981,0.000,0.000,1.000,0.0000,0.0000,0.0000,0.0000,0.0000,0.0000,0
2026-04-17,12:59:01,17190,1,-6.2640,0.0011,0.0119,0.3513,6.7186,0,1.0000,-783,1,36.6740,-3.4669,15.8252,1.6894,172.9344,0.000,0.000,0.998,0.0000,0.0000,0.0000,0.0000,0.0000,0.0000,0
2026-04-17,12:59:01,17225,1,-6.2640,0.0134,0.0122,0.3589,6.7186,0,1.0000,-783,1,36.7464,4.3615,15.8765,1.4833,173.1649,0.000,0.000,0.995,0.0000,0.0000,0.0000,0.0000,0.0000,0.0000,0
2026-04-17,12:59:01,17261,1,-6.2640,0.0144,0.0101,0.2969,6.7185,0,1.0000,-783,1,36.7709,-1.1845,15.9601,2.0952,173.3492,0.000,0.000,0.992,0.0000,0.0000,0.0000,0.0000,0.0000,0.0000,0
2026-04-17,12:59:01,17297,1,-6.2640,-0.0026,0.0117,0.3428,6.7185,0,1.0000,-783,1,36.7725,1.4631,15.9470,0.3440,173.4156,0.000,0.000,0.989,0.0000,0.0000,0.0000,0.0000,0.0000,0.0000,0
2026-04-17,12:59:01,17332,1,-6.2640,-0.0021,0.0110,0.3247,6.7185,0,1.0000,-783,1,36.7910,1.1206,15.9589,0.3366,173.4390,0.000,0.000,0.987,0.0000,0.0000,0.0000,0.0000,0.0000,0.0000,0
2026-04-17,12:59:01,17368,1,-6.2640,-0.0014,0.0095,0.2782,6.7185,0,1.0000,-783,1,36.7316,-0.6506,15.9888,0.6957,173.5545,0.000,0.000,0.984,0.0000,0.0000,0.0000,0.0000,0.0000,0.0000,0
2026-04-17,12:59:01,17403,1,-6.2640,0.0053,0.0082,0.2418,6.7184,0,1.0000,-783,1,36.7973,1.2918,16.0286,0.9630,173.6860,0.000,0.000,0.981,0.0000,0.0000,0.0000,0.0000,0.0000,0.0000,0
2026-04-17,12:59:01,17439,1,-6.2640,-0.0001,0.0082,0.2425,6.7183,0,1.0000,-783,1,36.7699,-0.2138,16.0040,-0.2144,173.7496,0.000,0.000,0.978,0.0000,0.0000,0.0000,0.0000,0.0000,0.0000,0
2026-04-17,12:59:01,17474,1,-6.2640,0.0057,0.0069,0.2028,6.7183,0,1.0000,-783,1,36.8345,1.7392,15.9904,-0.3092,173.8037,0.000,0.000,0.974,0.0000,0.0000,0.0000,0.0000,0.0000,0.0000,0
2026-04-17,12:59:01,17509,1,-6.2640,-0.0109,0.0077,0.2258,6.7183,0,1.0000,-783,1,36.8312,-0.4170,15.9970,-0.0388,173.8722,0.000,0.000,0.971,0.0000,0.0000,0.0000,0.0000,0.0000,0.0000,0
2026-04-17,12:59:01,17545,1,-6.2560,0.0082,0.0063,0.1844,6.7183,0,1.0000,-782,1,36.8428,0.6734,15.9531,-0.9443,173.9395,0.000,0.000,0.968,0.0000,0.0000,0.0000,0.0000,0.0000,0.0000,0
2026-04-17,12:59:01,17581,1,-6.2560,0.0024,0.0046,0.1351,6.7183,0,1.0000,-782,1,36.8567,-0.0566,15.9560,-0.3077,173.9797,0.000,0.000,0.965,0.0000,0.0000,0.0000,0.0000,0.0000,0.0000,0
2026-04-17,12:59:01,17617,1,-6.2480,0.0053,0.0058,0.1697,6.7182,0,1.0000,-781,1,36.8713,1.0357,15.9823,0.4680,174.0229,0.000,0.000,0.962,0.0000,0.0000,0.0000,0.0000,0.0000,0.0000,0
2026-04-17,12:59:01,17653,1,-6.2080,0.0193,0.0021,0.0610,6.7181,0,1.0000,-776,1,36.8871,0.0662,15.9660,-0.4723,174.0772,0.000,0.000,0.958,0.0000,0.0000,0.0000,0.0000,0.0000,0.0000,0
2026-04-17,12:59:01,17689,1,-6.2080,0.0175,-0.0001,0.0044,6.7179,0,1.0000,-776,1,36.8920,0.2161,15.9247,-1.0512,174.0750,0.000,0.000,0.955,0.0000,0.0000,0.0000,0.0000,0.0000,0.0000,0
2026-04-17,12:59:01,17727,1,-6.2080,0.0009,-0.0009,0.0256,6.7179,0,1.0000,-776,1,36.9116,0.4889,15.9739,0.4650,174.1097,0.000,0.000,0.952,0.0000,0.0000,0.0000,0.0000,0.0000,0.0000,0
2026-04-17,12:59:01,17762,1,-6.2080,0.0253,-0.0011,0.0322,6.7178,0,1.0000,-776,1,36.9262,0.6496,15.9330,-0.9264,174.1367,0.000,0.000,0.949,0.0000,0.0000,0.0000,0.0000,0.0000,0.0000,0
2026-04-17,12:59:01,17798,1,-6.2080,0.0150,-0.0041,0.1199,6.7177,0,1.0000,-776,1,36.9167,-0.7973,15.8780,-1.4129,174.1481,0.000,0.000,0.946,0.0000,0.0000,0.0000,0.0000,0.0000,0.0000,0
2026-04-17,12:59:01,17833,1,-6.2080,0.0024,-0.0048,0.1398,6.7176,0,1.0000,-776,1,36.9225,0.2144,15.9164,0.2948,174.1595,0.000,0.000,0.942,0.0000,0.0000,0.0000,0.0000,0.0000,0.0000,0
2026-04-17,12:59:01,17870,1,-6.1920,0.0005,-0.0057,0.1675,6.7176,0,1.0000,-774,1,36.9512,0.7776,15.9145,-0.1698,174.1687,0.000,0.000,0.939,0.0000,0.0000,0.0000,0.0000,0.0000,0.0000,0
2026-04-17,12:59:02,17905,1,-6.1920,0.0148,-0.0067,0.1968,6.7176,0,1.0000,-774,1,36.9658,0.5103,15.9046,-0.3494,174.1659,0.000,0.000,0.936,0.0000,0.0000,0.0000,0.0000,0.0000,0.0000,0
2026-04-17,12:59:02,17941,1,-6.1840,-0.0026,-0.0070,0.2058,6.7176,0,1.0000,-773,1,36.9662,0.0237,15.9221,0.3018,174.1950,0.000,0.000,0.933,0.0000,0.0000,0.0000,0.0000,0.0000,0.0000,0
2026-04-17,12:59:02,17976,1,-6.1760,0.0253,-0.0086,0.2542,6.7175,0,1.0000,-772,1,36.9867,0.2359,15.9689,1.2964,174.1911,0.000,0.000,0.930,0.0000,0.0000,0.0000,0.0000,0.0000,0.0000,0
2026-04-17,12:59:02,18012,1,-6.1760,0.0030,-0.0099,0.2911,6.7175,0,1.0000,-772,1,36.9990,1.0056,16.0567,2.1937,174.1926,0.000,0.000,0.926,0.0000,0.0000,0.0000,0.0000,0.0000,0.0000,0
2026-04-17,12:59:02,18048,1,-6.1680,-0.0006,-0.0092,0.2710,6.7175,0,1.0000,-771,1,36.9950,-0.2374,16.1574,2.7935,174.1764,0.000,0.000,0.923,0.0000,0.0000,0.0000,0.0000,0.0000,0.0000,0
2026-04-17,12:59:02,18084,1,-6.1680,-0.0058,-0.0089,0.2627,6.7175,0,1.0000,-771,1,36.9811,0.1254,16.2799,3.2289,174.1974,0.000,0.000,0.920,0.0000,0.0000,0.0000,0.0000,0.0000,0.0000,0
2026-04-17,12:59:02,18117,1,-6.1680,-0.0013,-0.0093,0.2723,6.7174,0,1.0000,-771,1,36.9792,0.0573,16.3070,2.6939,174.2112,0.000,0.000,0.918,0.0000,0.0000,0.0000,0.0000,0.0000,0.0000,0
2026-04-17,12:59:02,18152,1,-6.1680,0.0013,-0.0092,0.2715,6.7174,0,1.0000,-771,1,36.9882,0.1801,16.3565,1.9782,174.2400,0.000,0.000,0.915,0.0000,0.0000,0.0000,0.0000,0.0000,0.0000,0
2026-04-17,12:59:02,18188,1,-6.1680,-0.0042,-0.0089,0.2627,6.7174,0,1.0000,-771,1,36.9923,0.4602,16.3367,-0.0971,174.2319,0.000,0.000,0.912,0.0000,0.0000,0.0000,0.0000,0.0000,0.0000,0
2026-04-17,12:59:02,18223,1,-6.1680,0.0035,-0.0099,0.2903,6.7174,0,1.0000,-771,1,36.9862,-0.0232,16.2964,-0.5530,174.2309,0.000,0.000,0.909,0.0000,0.0000,0.0000,0.0000,0.0000,0.0000,0
2026-04-17,12:59:02,18258,1,-6.1680,0.0021,-0.0092,0.2716,6.7174,0,1.0000,-771,1,36.9980,0.3661,16.2949,-0.1866,174.2395,0.000,0.000,0.906,0.0000,0.0000,0.0000,0.0000,0.0000,0.0000,0
2026-04-17,12:59:02,18294,1,-6.1760,0.0060,-0.0099,0.2907,6.7174,0,1.0000,-772,1,36.9899,-0.0917,16.3269,0.0699,174.2593,0.000,0.000,0.902,0.0000,0.0000,0.0000,0.0000,0.0000,0.0000,0
2026-04-17,12:59:02,18329,1,-6.1760,0.0085,-0.0096,0.2818,6.7174,0,1.0000,-772,1,37.0052,0.5859,16.3118,-0.2170,174.2524,0.000,0.000,0.899,0.0000,0.0000,0.0000,0.0000,0.0000,0.0000,0
2026-04-17,12:59:02,18364,1,-6.1680,-0.0043,-0.0080,0.2341,6.7174,0,1.0000,-771,1,36.9951,-0.1916,16.3522,0.7692,174.2371,0.000,0.000,0.896,0.0000,0.0000,0.0000,0.0000,0.0000,0.0000,0
2026-04-17,12:59:02,18400,1,-6.1680,-0.0011,-0.0099,0.2900,6.7174,0,1.0000,-771,1,36.9918,-0.0916,16.4019,1.1564,174.2499,0.000,0.000,0.893,0.0000,0.0000,0.0000,0.0000,0.0000,0.0000,0
2026-04-17,12:59:02,18435,1,-6.1680,0.0137,-0.0111,0.3276,6.7174,0,1.0000,-771,1,36.9995,0.2604,16.3692,-0.2240,174.2366,0.000,0.000,0.890,0.0000,0.0000,0.0000,0.0000,0.0000,0.0000,0
2026-04-17,12:59:02,18471,1,-6.1680,0.0037,-0.0102,0.2996,6.7174,0,1.0000,-771,1,36.9870,-0.2376,16.2913,-1.7355,174.2548,0.000,0.000,0.886,0.0000,0.0000,0.0000,0.0000,0.0000,0.0000,0
2026-04-17,12:59:02,18507,1,-6.1680,-0.0113,-0.0099,0.2903,6.7174,0,1.0000,-771,1,36.9821,-0.0424,16.2142,-2.2189,174.2607,0.000,0.000,0.883,0.0000,0.0000,0.0000,0.0000,0.0000,0.0000,0
2026-04-17,12:59:02,18542,1,-6.1680,0.0032,-0.0108,0.3180,6.7174,0,1.0000,-771,1,36.9985,0.3252,16.1255,-2.5757,174.2379,0.000,0.000,0.880,0.0000,0.0000,0.0000,0.0000,0.0000,0.0000,0
2026-04-17,12:59:02,18577,1,-6.1600,0.0060,-0.0102,0.2996,6.7174,0,1.0000,-770,1,37.0141,0.4703,16.0559,-2.3660,174.2475,0.000,0.000,0.877,0.0000,0.0000,0.0000,0.0000,0.0000,0.0000,0
2026-04-17,12:59:02,18613,1,-6.1600,-0.0041,-0.0092,0.2716,6.7174,0,1.0000,-770,1,37.0124,-0.6698,16.0865,-0.1288,174.2368,0.000,0.000,0.874,0.0000,0.0000,0.0000,0.0000,0.0000,0.0000,0
2026-04-17,12:59:02,18649,1,-6.1600,-0.0050,-0.0089,0.2627,6.7174,0,1.0000,-770,1,36.9998,-0.0838,16.1028,0.0808,174.2399,0.000,0.000,0.870,0.0000,0.0000,0.0000,0.0000,0.0000,0.0000,0
2026-04-17,12:59:02,18686,1,-6.0880,-0.0138,-0.0086,0.2535,6.7174,0,1.0000,-761,1,36.9908,-0.3673,16.0795,-0.4379,174.2358,0.000,0.000,0.867,0.0000,0.0000,0.0000,0.0000,0.0000,0.0000,0
2026-04-17,12:59:02,18721,1,-6.0720,-0.0005,-0.0099,0.2900,6.7174,0,1.0000,-759,1,36.9849,-0.2587,16.0866,-0.0996,174.2512,0.000,0.000,0.864,0.0000,0.0000,0.0000,0.0000,0.0000,0.0000,0
2026-04-17,12:59:02,18757,1,-6.0640,-0.0031,-0.0093,0.2723,6.7174,0,1.0000,-758,1,36.9817,-0.0903,16.0909,0.0024,174.2529,0.000,0.000,0.861,0.0000,0.0000,0.0000,0.0000,0.0000,0.0000,0
2026-04-17,12:59:02,18793,1,-6.0560,0.0094,-0.0102,0.3002,6.7174,0,1.0000,-757,1,36.9740,-0.2748,16.1012,0.1969,174.2423,0.000,0.000,0.858,0.0000,0.0000,0.0000,0.0000,0.0000,0.0000,0
2026-04-17,12:59:02,18828,1,-6.0560,-0.0068,-0.0092,0.2712,6.7174,0,1.0000,-757,1,36.9772,0.3489,16.0837,-0.3473,174.2525,0.000,0.000,0.854,0.0000,0.0000,0.0000,0.0000,0.0000,0.0000,0
2026-04-17,12:59:02,18863,1,-6.0560,-0.0070,-0.0086,0.2532,6.7174,0,1.0000,-757,1,36.9681,0.4304,15.9608,-2.8556,174.2473,0.000,0.000,0.851,0.0000,0.0000,0.0000,0.0000,0.0000,0.0000,0
2026-04-17,12:59:03,18902,1,-6.0560,0.0004,-0.0102,0.3009,6.7174,0,1.0000,-757,1,36.9544,-0.0064,15.9279,-2.2626,174.2421,0.000,0.000,0.849,0.0000,0.0000,0.0000,0.0000,0.0000,0.0000,0
2026-04-17,12:59:03,18937,1,-6.0560,-0.0028,-0.0092,0.2719,6.7174,0,1.0000,-757,1,36.9291,-0.3869,15.9304,-0.4527,174.2451,0.000,0.000,0.846,0.0000,0.0000,0.0000,0.0000,0.0000,0.0000,0
2026-04-17,12:59:03,18972,1,-6.0560,0.0019,-0.0096,0.2815,6.7174,0,1.0000,-757,1,36.9492,0.4320,16.0075,1.5485,174.2308,0.000,0.000,0.842,0.0000,0.0000,0.0000,0.0000,0.0000,0.0000,0
2026-04-17,12:59:03,19008,1,-6.0560,0.0061,-0.0096,0.2815,6.7174,0,1.0000,-757,1,36.9473,-0.2142,16.1737,3.9102,174.2306,0.000,0.000,0.839,0.0000,0.0000,0.0000,0.0000,0.0000,0.0000,0
2026-04-17,12:59:03,19043,1,-6.0560,0.0035,-0.0105,0.3097,6.7174,0,1.0000,-757,1,36.9679,1.0774,16.2796,3.1770,174.2452,0.000,0.000,0.836,0.0000,0.0000,0.0000,0.0000,0.0000,0.0000,0
2026-04-17,12:59:03,19079,1,-6.0560,0.0063,-0.0102,0.3011,6.7174,0,1.0000,-757,1,36.9734,-0.0714,16.2298,-0.0915,174.2257,0.000,0.000,0.833,0.0000,0.0000,0.0000,0.0000,0.0000,0.0000,0
2026-04-17,12:59:03,19114,1,-6.0560,-0.0025,-0.0093,0.2723,6.7174,0,1.0000,-757,1,36.9914,0.7298,16.2358,0.0576,174.2185,0.000,0.000,0.830,0.0000,0.0000,0.0000,0.0000,0.0000,0.0000,0
2026-04-17,12:59:03,19149,1,-6.0560,-0.0182,-0.0086,0.2532,6.7174,0,1.0000,-757,1,36.9932,-0.3942,16.2713,0.6947,174.2139,0.000,0.000,0.826,0.0000,0.0000,0.0000,0.0000,0.0000,0.0000,0
2026-04-17,12:59:03,19185,1,-6.0560,-0.0010,-0.0096,0.2818,6.7174,0,1.0000,-757,1,36.9733,-0.3889,16.2326,-0.6358,174.2024,0.000,0.000,0.823,0.0000,0.0000,0.0000,0.0000,0.0000,0.0000,0
2026-04-17,12:59:03,19221,1,-6.0560,-0.0164,-0.0086,0.2520,6.7175,0,1.0000,-757,1,37.3228,17.0057,16.2857,1.3131,174.1900,0.000,0.000,0.820,0.0000,0.0000,0.0000,0.0000,0.0000,0.0000,0
2026-04-17,12:59:03,19256,1,-6.0560,-0.1359,0.0015,0.0437,6.7180,0,1.0000,-757,1,38.7495,41.0411,16.4014,1.9603,173.4019,0.000,0.000,0.817,0.0000,0.0000,0.0000,0.0000,0.0000,0.0000,0
2026-04-17,12:59:03,19292,1,-6.0560,-0.0041,0.0082,0.2418,6.7185,0,1.0000,-757,1,40.2430,36.7453,15.6664,-13.3312,171.6924,0.000,0.000,0.814,0.0000,0.0000,0.0000,0.0000,0.0000,0.0000,0
2026-04-17,12:59:03,19328,1,-6.0560,0.0186,0.0078,0.2289,6.7185,0,1.0000,-757,1,42.7435,58.1264,14.7452,-19.5991,170.9003,0.000,0.000,0.810,0.0000,0.0000,0.0000,0.0000,0.0000,0.0000,0
2026-04-17,12:59:03,19363,1,-6.0560,0.0551,0.0009,0.0267,6.7181,0,1.0000,-757,1,44.7092,48.2467,14.4989,-8.6066,170.7803,0.000,0.000,0.807,0.0000,0.0000,0.0000,0.0000,0.0000,0.0000,0
2026-04-17,12:59:03,19399,1,-6.0560,0.0144,-0.0041,0.1192,6.7178,0,1.0000,-757,1,47.9779,64.4716,15.1840,11.6825,171.1523,0.000,0.000,0.804,0.0000,0.0000,0.0000,0.0000,0.0000,0.0000,0
2026-04-17,12:59:03,19434,1,-6.0560,-0.0043,-0.0030,0.0870,6.7179,0,1.0000,-757,1,49.5654,11.4293,16.4567,29.5701,171.2748,0.000,0.000,0.801,0.0000,0.0000,0.0000,0.0000,0.0000,0.0000,0
2026-04-17,12:59:03,19469,1,-6.0560,-0.0001,-0.0043,0.1276,6.7179,0,1.0000,-757,1,49.1508,-47.6836,18.0667,43.2335,171.5305,0.000,0.000,0.798,0.0000,0.0000,0.0000,0.0000,0.0000,0.0000,0
2026-04-17,12:59:03,19505,1,-6.0560,0.0550,-0.0094,0.2750,6.7177,0,1.0000,-757,1,42.0510,-249.0736,19.2427,39.5017,152.2489,0.000,0.000,0.794,0.0000,0.0000,0.0000,0.0000,0.0000,0.0000,0
2026-04-17,12:59:03,19540,1,-6.0560,0.0038,-0.0068,0.1993,6.7176,0,1.0000,-757,1,34.8785,-232.5871,20.8975,48.6521,149.2262,0.000,0.000,0.791,0.0000,0.0000,0.0000,0.0000,0.0000,0.0000,0
2026-04-17,12:59:03,19575,1,-6.0560,-0.0065,-0.0080,0.2366,6.7176,0,1.0000,-757,1,29.3763,-182.7164,22.6001,52.6539,152.7522,0.000,0.000,0.788,0.0000,0.0000,0.0000,0.0000,0.0000,0.0000,0
2026-04-17,12:59:03,19611,1,-6.0560,0.0010,-0.0083,0.2430,6.7176,0,1.0000,-757,1,25.7868,-111.9838,24.0419,47.0527,155.8386,0.000,0.000,0.785,0.0000,0.0000,0.0000,0.0000,0.0000,0.0000,0
2026-04-17,12:59:03,19647,1,-6.0560,0.0072,-0.0083,0.2447,6.7176,0,1.0000,-757,1,23.4200,-88.3110,25.4550,45.0443,158.3252,0.000,0.000,0.782,0.0000,0.0000,0.0000,0.0000,0.0000,0.0000,0
2026-04-17,12:59:03,19681,1,-6.0560,-0.0031,-0.0073,0.2155,6.7176,0,1.0000,-757,1,23.0300,-53.7755,25.8084,37.8661,158.9435,0.000,0.000,0.780,0.0000,0.0000,0.0000,0.0000,0.0000,0.0000,0
2026-04-17,12:59:03,19717,1,-6.0560,0.0061,-0.0090,0.2634,6.7176,0,1.0000,-757,1,19.6784,-100.9297,26.8110,33.7454,161.0598,0.000,0.000,0.777,0.0000,0.0000,0.0000,0.0000,0.0000,0.0000,0
2026-04-17,12:59:03,19753,1,-6.0560,0.0003,-0.0089,0.2619,6.7176,0,1.0000,-757,1,16.7166,-92.1535,27.7887,31.4593,162.7481,0.000,0.000,0.774,0.0000,0.0000,0.0000,0.0000,0.0000,0.0000,0
2026-04-17,12:59:03,19788,1,-6.0560,0.0014,-0.0079,0.2319,6.7176,0,1.0000,-757,1,14.2117,-81.6230,28.6395,28.5915,164.2999,0.000,0.000,0.770,0.0000,0.0000,0.0000,0.0000,0.0000,0.0000,0
2026-04-17,12:59:03,19824,1,-6.0640,-0.0074,-0.0086,0.2529,6.7176,0,1.0000,-758,1,11.9980,-74.1458,29.3011,23.1409,165.4981,0.000,0.000,0.767,0.0000,0.0000,0.0000,0.0000,0.0000,0.0000,0
2026-04-17,12:59:03,19859,1,-6.0640,0.0017,-0.0092,0.2716,6.7176,0,1.0000,-758,1,10.1862,-57.5533,29.7692,17.4980,166.6866,0.000,0.000,0.764,0.0000,0.0000,0.0000,0.0000,0.0000,0.0000,0
2026-04-17,12:59:04,19894,1,-6.0640,-0.0005,-0.0081,0.2380,6.7176,0,1.0000,-758,1,8.6056,-52.5356,30.1793,14.5791,167.5622,0.000,0.000,0.761,0.0000,0.0000,0.0000,0.0000,0.0000,0.0000,0
2026-04-17,12:59:04,19930,1,-6.0640,0.0040,-0.0097,0.2843,6.7176,0,1.0000,-758,1,7.2161,-42.7360,30.5258,11.9972,168.3834,0.000,0.000,0.758,0.0000,0.0000,0.0000,0.0000,0.0000,0.0000,0
2026-04-17,12:59:04,19965,1,-6.0640,-0.0068,-0.0080,0.2342,6.7176,0,1.0000,-758,1,6.1244,-36.2762,30.8371,10.4648,169.0477,0.000,0.000,0.754,0.0000,0.0000,0.0000,0.0000,0.0000,0.0000,0
2026-04-17,12:59:04,20001,1,-0.9520,-0.0045,-0.0077,0.2267,6.7176,0,1.0000,-119,1,5.0837,-30.0816,30.9473,5.5259,169.5800,0.000,0.000,0.751,0.0000,0.0000,0.0000,0.0000,0.0000,0.0000,0
2026-04-17,12:59:04,20037,1,-0.2880,0.0052,-0.0089,0.2626,6.7176,0,1.0000,-36,1,4.3101,-25.3682,31.0370,3.9699,170.1312,0.000,0.000,0.748,0.0000,0.0000,0.0000,0.0000,0.0000,0.0000,0
2026-04-17,12:59:04,20072,1,-0.2880,0.0103,-0.0086,0.2529,6.7176,0,1.0000,-36,1,3.5339,-24.2872,31.2004,4.7083,170.4668,0.000,0.000,0.745,0.0000,0.0000,0.0000,0.0000,0.0000,0.0000,0
2026-04-17,12:59:04,20107,1,0.0000,0.0105,-0.0099,0.2911,6.7176,0,1.0000,0,1,2.9926,-17.6308,31.4089,5.9773,170.9058,0.000,0.000,0.742,0.0000,0.0000,0.0000,0.0000,0.0000,0.0000,0
2026-04-17,12:59:04,20143,1,0.0000,-0.0049,-0.0079,0.2326,6.7176,0,1.0000,0,1,2.4258,-18.7415,31.6325,6.9196,171.1443,0.000,0.000,0.738,0.0000,0.0000,0.0000,0.0000,0.0000,0.0000,0
2026-04-17,12:59:04,20178,1,0.0000,-0.0060,-0.0080,0.2357,6.7176,0,1.0000,0,1,2.0163,-12.8217,31.9190,7.9942,171.4776,0.000,0.000,0.735,0.0000,0.0000,0.0000,0.0000,0.0000,0.0000,0
2026-04-17,12:59:04,20214,1,1.8000,0.0065,-0.0089,0.2618,6.7176,0,1.0000,225,1,1.6859,-7.4979,32.0246,4.5984,171.7069,0.000,0.000,0.732,0.0000,0.0000,0.0000,0.0000,0.0000,0.0000,0
2026-04-17,12:59:04,20249,1,1.8000,2.0052,0.0151,0.4439,6.7060,0,1.0000,225,1,0.7275,-38.0153,31.7192,-5.3465,171.8002,0.016,0.000,0.729,0.0000,0.0000,0.0000,0.0000,0.0000,0.0000,0
2026-04-17,12:59:04,20284,1,1.8000,1.5432,0.0429,1.2620,6.6927,0,1.0000,225,1,-0.4426,-34.7537,30.8414,-20.4061,172.0607,0.016,0.000,0.726,0.0000,0.0000,0.0000,0.0000,0.0000,0.0000,0
2026-04-17,12:59:04,20320,1,6.2160,2.8503,0.1329,3.9079,6.6770,0,1.0000,777,1,-2.5645,-48.1760,29.6157,-31.5164,172.4051,0.080,0.000,0.722,0.0000,0.0000,0.0000,0.0000,0.0000,0.0000,0
2026-04-17,12:59:04,20356,1,6.2160,6.6908,0.0913,2.6860,6.6320,0,1.0000,777,1,-13.3644,-345.3846,28.3699,-35.1304,173.3895,0.144,0.000,0.719,0.0000,0.0000,0.0000,0.0000,0.0000,0.0000,0
2026-04-17,12:59:04,20391,1,6.2160,6.5077,0.0175,0.5134,6.5816,0,1.0000,777,1,-18.3380,24.7627,27.5768,-31.1786,164.7543,0.184,0.000,0.716,0.0000,0.0000,0.0000,0.0000,0.0000,0.0000,0
2026-04-17,12:59:04,20427,1,7.9920,7.0454,0.1177,3.4626,6.5321,0,1.0000,999,1,-10.3410,280.3455,26.1594,-41.9174,151.7102,0.224,0.000,0.713,0.0000,0.0000,0.0000,0.0000,0.0000,0.0000,0
2026-04-17,12:59:04,20461,1,7.9920,8.3431,0.0359,1.0567,6.4913,0,1.0000,999,1,-2.7352,254.5533,25.7691,-35.2819,151.4728,0.208,0.000,0.711,0.0000,0.0000,0.0000,0.0000,0.0000,0.0000,0
2026-04-17,12:59:04,20496,1,7.9920,7.6305,0.1097,3.2253,6.4156,0,1.0000,999,1,9.3210,329.4243,24.2102,-46.3375,152.8916,0.176,0.000,0.726,0.0000,0.0000,0.0000,0.0000,0.0000,0.0000,0
2026-04-17,12:59:04,20532,1,7.9920,8.0081,0.1157,3.4019,6.3544,0,1.0000,999,1,13.9671,85.7376,22.1328,-56.7902,155.5836,0.144,0.000,0.758,0.0000,0.0000,0.0000,0.0000,0.0000,0.0000,0
2026-04-17,12:59:04,20567,1,7.9920,7.9775,0.1293,3.8035,6.2963,0,1.0000,999,1,2.7697,-329.8113,19.2605,-74.1155,158.3673,0.112,0.000,0.781,0.0000,0.0000,0.0000,0.0000,0.0000,0.0000,0
2026-04-17,12:59:04,20603,1,7.9920,7.8324,0.1620,4.7645,6.2365,0,1.0000,999,1,-4.0159,-86.9933,18.1616,-40.8501,128.1460,0.176,0.000,0.778,0.0000,0.0000,0.0000,0.0000,0.0000,0.0000,0
2026-04-17,12:59:04,20639,1,7.9920,8.0260,0.1566,4.6066,6.1753,0,1.0000,999,1,8.2299,292.8336,18.6262,-8.4892,130.8684,0.192,0.000,0.792,0.0000,0.0000,0.0000,0.0000,0.0000,0.0000,0
2026-04-17,12:59:04,20674,1,7.9920,8.1414,0.1274,3.7460,6.1140,0,1.0000,999,1,11.5823,50.5701,18.2603,-12.3163,137.2704,0.160,0.000,0.824,0.0000,0.0000,0.0000,0.0000,0.0000,0.0000,0
2026-04-17,12:59:04,20709,1,7.9920,7.9982,0.1278,3.7595,6.0540,0,1.0000,999,1,5.8739,-131.2943,16.7689,-33.9337,142.5933,0.128,0.000,0.856,0.0000,0.0000,0.0000,0.0000,0.0000,0.0000,0
2026-04-17,12:59:04,20745,1,7.9920,7.8608,0.1494,4.3931,5.9931,0,1.0000,999,1,7.1471,97.5719,15.8052,-25.0055,96.5555,0.168,0.000,0.870,0.0000,0.0000,0.0000,0.0000,0.0000,0.0000,0
2026-04-17,12:59:04,20780,1,7.9920,7.9286,0.1705,5.0134,5.9340,0,1.0000,999,1,13.7407,181.5325,16.6556,6.2223,101.8812,0.136,0.000,0.902,0.0000,0.0000,0.0000,0.0000,0.0000,0.0000,0
2026-04-17,12:59:04,20815,1,7.9920,8.0456,0.1589,4.6721,5.8742,0,1.0000,999,1,16.5133,52.6590,16.5554,-3.3003,111.7730,0.104,0.000,0.934,0.0000,0.0000,0.0000,0.0000,0.0000,0.0000,0
2026-04-17,12:59:04,20851,1,7.9920,8.0742,0.1543,4.5392,5.8123,0,1.0000,999,1,13.1181,-80.4165,15.1845,-27.6604,120.4339,0.072,0.000,0.966,0.0000,0.0000,0.0000,0.0000,0.0000,0.0000,0
2026-04-17,12:59:05,20886,1,7.9920,7.9574,0.1447,4.2557,5.7524,0,1.0000,999,1,14.3102,54.3966,14.0565,-27.8622,88.7641,0.040,0.000,0.998,0.0000,0.0000,0.0000,0.0000,0.0000,0.0000,0
2026-04-17,12:59:05,20922,1,7.9920,7.9619,0.1541,4.5314,5.6910,0,1.0000,999,1,17.3323,81.1213,14.1848,-7.7151,95.4100,0.008,0.000,1.000,0.0000,0.0000,0.0000,0.0000,0.0000,0.0000,0
2026-04-17,12:59:05,20958,1,7.9920,8.0649,0.1507,4.4314,5.6295,0,1.0000,999,1,18.0951,17.7755,13.9183,-8.7614,106.9366,0.000,0.000,1.000,0.0000,0.0000,0.0000,0.0000,0.0000,0.0000,0
2026-04-17,12:59:05,20993,1,7.9920,7.9272,0.1471,4.3251,5.5698,0,1.0000,999,1,17.4264,-5.6438,13.2766,-15.3234,116.5150,0.000,0.000,1.000,0.0000,0.0000,0.0000,0.0000,0.0000,0.0000,0
2026-04-17,12:59:05,21028,1,7.9920,7.9104,0.1660,4.8829,5.5104,0,1.0000,999,1,19.2938,57.2748,12.6742,-16.1985,124.4731,0.000,0.000,1.000,0.0000,0.0000,0.0000,0.0000,0.0000,0.0000,0
2026-04-17,12:59:05,21064,1,7.9920,8.0635,0.1614,4.7483,5.4495,0,1.0000,999,1,20.2003,23.6401,12.2120,-14.2096,131.3601,0.000,0.000,1.000,0.0000,0.0000,0.0000,0.0000,0.0000,0.0000,0
2026-04-17,12:59:05,21099,1,7.9920,8.0861,0.1632,4.8006,5.3895,0,1.0000,999,1,20.3245,15.8546,11.7218,-13.3304,124.5483,0.000,0.000,1.000,0.0000,0.0000,0.0000,0.0000,0.0000,0.0000,0
2026-04-17,12:59:05,21135,1,7.9920,8.0181,0.1605,4.7198,5.3270,0,1.0000,999,1,21.1701,29.3246,11.3105,-11.8598,132.1226,0.000,0.000,1.000,0.0000,0.0000,0.0000,0.0000,0.0000,0.0000,0
