Date,Time,Timestamp_ms,Kite_ID,Commanded_Vel_rps,Actual_Vel_rps,Torque_Nm,Tension_N,Line_Length_m,Target_Enabled,Target_Length_m,Remote_Joy,Remote_Active,Pitch_deg,Pitch_Vel_dps,Yaw_deg,Yaw_Vel_dps,Roll_deg,Dive_Conf,AWW_Conf,AF_Conf,Kite_Pitch_deg,Kite_Roll_deg,Kite_Yaw_deg,Kite_Gyro_X,Kite_Gyro_Y,Kite_Gyro_Z,Kite_IMU_Battery
2026-04-17,08:25:27,1,1,0.0000,0.0593,0.0052,0.1525,1.1573,0,1.0000,0,0,12.6972,40.0260,70.5952,-41.6014,152.2014,0.000,0.000,0.507,0.0000,0.0000,0.0000,0.0000,0.0000,0.0000,0
2026-04-17,08:25:27,1,1,0.0000,0.0928,-0.0040,0.1178,1.1568,0,1.0000,0,0,13.2556,25.9825,70.1438,-32.4863,153.3615,0.000,0.000,0.504,0.0000,0.0000,0.0000,0.0000,0.0000,0.0000,0
2026-04-17,08:25:27,2,1,0.0000,0.0687,-0.0149,0.4392,1.1563,0,1.0000,0,0,13.6045,16.6211,70.1132,-22.3927,154.8560,0.000,0.000,0.523,0.0000,0.0000,0.0000,0.0000,0.0000,0.0000,0
2026-04-17,08:25:27,3,1,0.0000,0.0463,-0.0233,0.6861,1.1559,0,1.0000,0,0,13.7726,9.7524,70.2199,-14.2555,156.0336,0.000,0.000,0.553,0.0000,0.0000,0.0000,0.0000,0.0000,0.0000,0
2026-04-17,08:25:27,3,1,0.0000,0.0047,-0.0237,0.6968,1.1557,0,1.0000,0,0,13.8352,5.2407,70.7404,-4.6628,157.0401,0.000,0.000,0.583,0.0000,0.0000,0.0000,0.0000,0.0000,0.0000,0
2026-04-17,08:25:27,4,1,0.0000,0.0142,-0.0243,0.7151,1.1557,0,1.0000,0,0,13.8698,2.9344,71.7097,6.2528,158.3442,0.000,0.000,0.613,0.0000,0.0000,0.0000,0.0000,0.0000,0.0000,0
2026-04-17,08:25:27,4,1,0.0000,0.0312,-0.0271,0.7959,1.1556,0,1.0000,0,0,14.0239,4.0007,72.6359,13.1234,159.5023,0.000,0.000,0.643,0.0000,0.0000,0.0000,0.0000,0.0000,0.0000,0
2026-04-17,08:25:27,5,1,0.0000,0.0106,-0.0278,0.8178,1.1555,0,1.0000,0,0,14.3704,7.7163,73.3137,15.4500,160.4118,0.000,0.000,0.673,0.0000,0.0000,0.0000,0.0000,0.0000,0.0000,0
2026-04-17,08:25:27,6,1,0.0000,-0.0048,-0.0267,0.7862,1.1555,0,1.0000,0,0,14.6225,7.6565,73.8684,15.8616,161.1019,0.000,0.000,0.703,0.0000,0.0000,0.0000,0.0000,0.0000,0.0000,0
2026-04-17,08:25:27,7,1,0.0000,0.0036,-0.0271,0.7962,1.1555,0,1.0000,0,0,14.8805,7.5462,74.3758,15.5719,161.8762,0.000,0.000,0.733,0.0000,0.0000,0.0000,0.0000,0.0000,0.0000,0
2026-04-17,08:25:27,8,1,0.0000,0.0007,-0.0269,0.7912,1.1555,0,1.0000,0,0,15.1258,7.4275,74.9318,15.7987,162.7888,0.000,0.000,0.763,0.0000,0.0000,0.0000,0.0000,0.0000,0.0000,0
2026-04-17,08:25:27,9,1,0.0000,-0.0026,-0.0281,0.8277,1.1555,0,1.0000,0,0,15.1936,4.0031,75.4169,15.3178,163.7632,0.000,0.000,0.793,0.0000,0.0000,0.0000,0.0000,0.0000,0.0000,0
2026-04-17,08:25:27,9,1,0.0000,-0.0035,-0.0263,0.7745,1.1555,0,1.0000,0,0,15.0933,-0.2078,75.9534,15.6307,164.9506,0.000,0.000,0.823,0.0000,0.0000,0.0000,0.0000,0.0000,0.0000,0
2026-04-17,08:25:27,10,1,0.0000,0.0044,-0.0285,0.8395,1.1555,0,1.0000,0,0,14.7035,-9.4167,76.5185,15.2852,166.5653,0.000,0.000,0.853,0.0000,0.0000,0.0000,0.0000,0.0000,0.0000,0
2026-04-17,08:25:27,11,1,0.0000,0.0050,-0.0297,0.8725,1.1554,0,1.0000,0,0,14.2544,-11.8189,76.9305,14.3923,167.7731,0.000,0.000,0.883,0.0000,0.0000,0.0000,0.0000,0.0000,0.0000,0
2026-04-17,08:25:27,11,1,0.0000,0.0055,-0.0293,0.8611,1.1554,0,1.0000,0,0,13.7640,-13.4398,77.2159,12.3883,168.7401,0.060,0.000,0.913,0.0000,0.0000,0.0000,0.0000,0.0000,0.0000,0
2026-04-17,08:25:27,12,1,0.0000,0.0452,-0.0374,1.0991,1.1551,0,1.0000,0,0,13.1582,-15.5560,77.4288,9.5922,169.6374,0.120,0.000,0.943,0.0000,0.0000,0.0000,0.0000,0.0000,0.0000,0
2026-04-17,08:25:27,12,1,0.0000,0.0697,-0.0455,1.3380,1.1547,0,1.0000,0,0,12.7242,-13.9258,77.6459,8.6074,170.2427,0.180,0.000,0.973,0.0000,0.0000,0.0000,0.0000,0.0000,0.0000,0
2026-04-17,08:25:27,13,1,0.0000,0.0248,-0.0459,1.3512,1.1545,0,1.0000,0,0,12.4602,-10.4781,77.7620,6.9694,170.5873,0.240,0.000,1.000,0.0000,0.0000,0.0000,0.0000,0.0000,0.0000,0
2026-04-17,08:25:27,14,1,0.0000,0.0245,-0.0492,1.4457,1.1544,0,1.0000,0,0,12.4189,-4.7605,77.8625,5.6687,170.8886,0.300,0.000,1.000,0.0000,0.0000,0.0000,0.0000,0.0000,0.0000,0
2026-04-17,08:25:27,15,1,0.0000,0.0303,-0.0547,1.6095,1.1541,0,1.0000,0,0,12.5489,0.3801,77.9283,4.4801,171.0765,0.360,0.000,1.000,0.0000,0.0000,0.0000,0.0000,0.0000,0.0000,0
2026-04-17,08:25:27,15,1,0.0000,0.0596,-0.0607,1.7852,1.1538,0,1.0000,0,0,12.7702,4.1008,77.9043,2.8063,171.2155,0.360,0.000,1.000,0.0000,0.0000,0.0000,0.0000,0.0000,0.0000,0
2026-04-17,08:25:27,16,1,0.0000,0.0025,-0.0618,1.8167,1.1537,0,1.0000,0,0,13.0227,6.1439,77.9198,2.1190,171.5294,0.330,0.000,1.000,0.0000,0.0000,0.0000,0.0000,0.0000,0.0000,0
2026-04-17,08:25:27,17,1,0.0000,-0.0054,-0.0604,1.7779,1.1537,0,1.0000,0,0,13.4511,10.1133,78.1442,3.4902,172.1738,0.300,0.000,1.000,0.0000,0.0000,0.0000,0.0000,0.0000,0.0000,0
2026-04-17,08:25:27,17,1,0.0000,-0.0422,-0.0561,1.6486,1.1539,0,1.0000,0,0,13.9558,12.8799,78.3563,4.3688,172.8028,0.270,0.000,1.000,0.0000,0.0000,0.0000,0.0000,0.0000,0.0000,0
2026-04-17,08:25:27,19,1,0.0000,-0.0506,-0.0477,1.4026,1.1543,0,1.0000,0,0,14.5178,15.1403,78.5442,4.7692,173.2589,0.240,0.000,1.000,0.0000,0.0000,0.0000,0.0000,0.0000,0.0000,0
2026-04-17,08:25:27,20,1,0.0000,-0.0647,-0.0395,1.1630,1.1546,0,1.0000,0,0,14.8406,11.6847,78.6211,3.9736,173.6111,0.210,0.000,1.000,0.0000,0.0000,0.0000,0.0000,0.0000,0.0000,0
2026-04-17,08:25:27,21,1,0.0000,-0.0313,-0.0371,1.0912,1.1549,0,1.0000,0,0,14.6534,0.9315,78.7427,3.9205,174.2167,0.180,0.000,1.000,0.0000,0.0000,0.0000,0.0000,0.0000,0.0000,0
2026-04-17,08:25:27,21,1,0.0000,-0.0010,-0.0372,1.0946,1.1549,0,1.0000,0,0,14.1381,-8.2296,79.1563,6.6091,175.3917,0.150,0.000,1.000,0.0000,0.0000,0.0000,0.0000,0.0000,0.0000,0
2026-04-17,08:25:27,22,1,0.0000,-0.0344,-0.0324,0.9528,1.1551,0,1.0000,0,0,13.7491,-10.4582,79.6414,9.1728,176.6788,0.120,0.000,1.000,0.0000,0.0000,0.0000,0.0000,0.0000,0.0000,0
2026-04-17,08:25:27,23,1,0.0000,-0.0338,-0.0274,0.8066,1.1554,0,1.0000,0,0,13.1465,-15.0271,80.2071,11.7810,178.0746,0.150,0.000,1.000,0.0000,0.0000,0.0000,0.0000,0.0000,0.0000,0
2026-04-17,08:25:27,23,1,0.0000,-0.0882,-0.0118,0.3479,1.1561,0,1.0000,0,0,12.4849,-18.0670,80.9836,15.5780,179.6673,0.120,0.000,1.000,0.0000,0.0000,0.0000,0.0000,0.0000,0.0000,0
2026-04-17,08:25:27,24,1,0.0000,0.0057,-0.0140,0.4110,1.1562,0,1.0000,0,0,11.6655,-18.0408,82.7421,25.1914,168.6367,0.080,0.000,1.000,0.0000,0.0000,0.0000,0.0000,0.0000,0.0000,0
2026-04-17,08:25:27,25,1,0.0000,-0.0241,-0.0085,0.2490,1.1564,0,1.0000,0,0,11.1457,-15.7635,84.7471,34.9710,151.4677,0.050,0.000,0.998,0.0000,0.0000,0.0000,0.0000,0.0000,0.0000,0
2026-04-17,08:25:27,25,1,0.0000,-0.0604,-0.0019,0.0571,1.1567,0,1.0000,0,0,10.5335,-18.7473,86.6930,42.5671,135.8459,0.020,0.000,0.995,0.0000,0.0000,0.0000,0.0000,0.0000,0.0000,0
2026-04-17,08:25:27,26,1,0.0000,0.0253,0.0015,0.0444,1.1570,0,1.0000,0,0,10.1996,-11.6442,86.5983,26.1166,125.4939,0.000,0.000,0.992,0.0000,0.0000,0.0000,0.0000,0.0000,0.0000,0
2026-04-17,08:25:27,27,1,0.0000,-0.0051,0.0015,0.0440,1.1570,0,1.0000,0,0,10.5063,0.7921,84.9014,1.4733,107.7815,0.000,0.000,0.989,0.0000,0.0000,0.0000,0.0000,0.0000,0.0000,0
2026-04-17,08:25:27,28,1,0.0000,-0.0129,0.0026,0.0758,1.1571,0,1.0000,0,0,11.0118,10.0945,83.6295,-11.2828,91.4109,0.000,0.000,0.986,0.0000,0.0000,0.0000,0.0000,0.0000,0.0000,0
2026-04-17,08:25:27,28,1,0.0000,0.0071,0.0013,0.0370,1.1570,0,1.0000,0,0,11.7200,16.6273,82.0501,-22.7335,75.8669,0.000,0.000,0.983,0.0000,0.0000,0.0000,0.0000,0.0000,0.0000,0
2026-04-17,08:25:27,29,1,0.0000,0.0126,0.0007,0.0203,1.1570,0,1.0000,0,0,13.8222,41.9169,79.8669,-34.4337,60.3366,0.000,0.000,0.980,0.0000,0.0000,0.0000,0.0000,0.0000,0.0000,0
2026-04-17,08:25:27,29,1,0.0000,0.0094,0.0008,0.0228,1.1569,0,1.0000,0,0,17.1534,73.5998,77.4806,-45.2473,44.9532,0.000,0.000,0.977,0.0000,0.0000,0.0000,0.0000,0.0000,0.0000,0
2026-04-17,08:25:27,30,1,0.0000,-0.0001,-0.0026,0.0754,1.1569,0,1.0000,0,0,20.6997,89.2088,75.1078,-52.3421,29.9731,0.000,0.000,0.974,0.0000,0.0000,0.0000,0.0000,0.0000,0.0000,0
2026-04-17,08:25:27,31,1,0.0000,0.0310,-0.0036,0.1072,1.1567,0,1.0000,0,0,24.3237,97.0103,74.1517,-43.6486,16.1963,0.000,0.000,0.971,0.0000,0.0000,0.0000,0.0000,0.0000,0.0000,0
2026-04-17,08:25:27,32,1,0.0000,0.0004,-0.0049,0.1427,1.1567,0,1.0000,0,0,27.7302,97.9464,74.2862,-28.3963,3.2549,0.000,0.000,0.968,0.0000,0.0000,0.0000,0.0000,0.0000,0.0000,0
2026-04-17,08:25:27,33,1,0.0000,0.0223,-0.0065,0.1899,1.1567,0,1.0000,0,0,31.6341,105.4858,74.4678,-17.7136,-2.3009,0.000,0.000,0.965,0.0000,0.0000,0.0000,0.0000,0.0000,0.0000,0
2026-04-17,08:25:27,59,1,0.0000,-0.0061,-0.0026,0.0777,1.1567,0,1.0000,0,0,35.5945,112.3823,74.8215,-8.6831,-14.2776,0.000,0.000,0.962,0.0000,0.0000,0.0000,0.0000,0.0000,0.0000,0
2026-04-17,08:25:27,60,1,0.0000,-0.0037,-0.0029,0.0858,1.1567,0,1.0000,0,0,37.2237,71.5087,75.9505,4.7161,-11.2554,0.000,0.000,0.959,0.0000,0.0000,0.0000,0.0000,0.0000,0.0000,0
2026-04-17,08:25:27,61,1,0.0000,0.0162,-0.0062,0.1827,1.1566,0,1.0000,0,0,33.5371,-28.2033,77.2043,15.2753,-7.9392,0.000,0.000,0.956,0.0000,0.0000,0.0000,0.0000,0.0000,0.0000,0
2026-04-17,08:25:27,62,1,0.0000,0.0154,-0.0086,0.2540,1.1565,0,1.0000,0,0,31.6001,-45.0704,78.8023,25.8874,1.8428,0.000,0.000,0.953,0.0000,0.0000,0.0000,0.0000,0.0000,0.0000,0
2026-04-17,08:25:27,62,1,0.0000,0.0041,-0.0111,0.3259,1.1564,0,1.0000,0,0,28.9476,-65.3261,80.2186,31.3574,10.9612,0.000,0.000,0.972,0.0000,0.0000,0.0000,0.0000,0.0000,0.0000,0
2026-04-17,08:25:27,63,1,0.0000,0.0131,-0.0122,0.3577,1.1564,0,1.0000,0,0,26.9913,-61.8229,81.9292,37.1312,19.4916,0.000,0.000,0.991,0.0000,0.0000,0.0000,0.0000,0.0000,0.0000,0
2026-04-17,08:25:27,64,1,0.0000,0.0262,-0.0141,0.4147,1.1562,0,1.0000,0,0,24.7145,-65.0097,84.1448,46.7535,27.5843,0.000,0.000,1.000,0.0000,0.0000,0.0000,0.0000,0.0000,0.0000,0
2026-04-17,08:25:27,65,1,0.0000,0.0079,-0.0172,0.5064,1.1560,0,1.0000,0,0,22.6187,-64.1131,86.3685,53.2821,35.2624,0.000,0.000,1.000,0.0000,0.0000,0.0000,0.0000,0.0000,0.0000,0
2026-04-17,08:25:27,66,1,0.0000,0.0365,-0.0237,0.6968,1.1559,0,1.0000,0,0,20.5648,-63.1007,88.4674,56.5591,42.5571,0.000,0.000,1.000,0.0000,0.0000,0.0000,0.0000,0.0000,0.0000,0
2026-04-17,08:25:27,66,1,0.0000,0.0395,-0.0269,0.7899,1.1556,0,1.0000,0,0,18.2986,-66.7716,90.6755,59.8793,49.4626,0.000,0.000,1.000,0.0000,0.0000,0.0000,0.0000,0.0000,0.0000,0
2026-04-17,08:25:27,67,1,0.0000,0.0307,-0.0293,0.8610,1.1554,0,1.0000,0,0,15.8472,-69.5645,92.8907,61.5363,55.7998,0.060,0.000,1.000,0.0000,0.0000,0.0000,0.0000,0.0000,0.0000,0
2026-04-17,08:25:27,67,1,0.0000,-0.0032,-0.0294,0.8660,1.1553,0,1.0000,0,0,13.3052,-74.1096,95.1169,63.4520,61.8760,0.120,0.000,1.000,0.0000,0.0000,0.0000,0.0000,0.0000,0.0000,0
2026-04-17,08:25:27,68,1,0.0000,-0.0158,-0.0287,0.8446,1.1554,0,1.0000,0,0,10.7009,-76.7898,97.3816,65.1088,67.7589,0.180,0.000,1.000,0.0000,0.0000,0.0000,0.0000,0.0000,0.0000,0
2026-04-17,08:25:27,69,1,0.0000,0.0033,-0.0289,0.8498,1.1554,0,1.0000,0,0,8.1919,-76.8036,99.5580,65.3262,73.6172,0.240,0.000,1.000,0.0000,0.0000,0.0000,0.0000,0.0000,0.0000,0
2026-04-17,08:25:27,70,1,0.0000,-0.0233,-0.0260,0.7637,1.1555,0,1.0000,0,0,5.7962,-74.1896,101.3406,61.5767,79.3222,0.270,0.000,1.000,0.0000,0.0000,0.0000,0.0000,0.0000,0.0000,0
2026-04-17,08:25:27,71,1,0.0000,-0.1150,-0.0143,0.4215,1.1558,0,1.0000,0,0,3.6079,-68.0104,102.6420,54.0675,84.8252,0.240,0.000,0.998,0.0000,0.0000,0.0000,0.0000,0.0000,0.0000,0
2026-04-17,08:25:27,72,1,0.0000,-0.0272,-0.0131,0.3864,1.1562,0,1.0000,0,0,1.7912,-60.3979,103.5067,45.0776,90.3145,0.210,0.000,0.995,0.0000,0.0000,0.0000,0.0000,0.0000,0.0000,0
2026-04-17,08:25:27,72,1,0.0000,0.0152,-0.0154,0.4534,1.1561,0,1.0000,0,0,0.2542,-51.7673,103.8258,33.6250,95.7426,0.180,0.000,0.992,0.0000,0.0000,0.0000,0.0000,0.0000,0.0000,0
2026-04-17,08:25:27,73,1,0.0000,-0.0013,-0.0152,0.4468,1.1562,0,1.0000,0,0,-0.6574,-37.2214,103.3566,18.1501,100.9689,0.150,0.000,0.989,0.0000,0.0000,0.0000,0.0000,0.0000,0.0000,0
2026-04-17,08:25:27,74,1,0.0000,0.0044,-0.0165,0.4853,1.1561,0,1.0000,0,0,12.8189,27.2612,85.0832,-7.4849,96.2748,0.000,0.000,1.000,0.0000,0.0000,0.0000,0.0000,0.0000,0.0000,0
2026-04-17,08:25:27,74,1,0.0000,-0.0067,-0.0171,0.5036,1.1560,0,1.0000,0,0,12.9079,8.3866,85.2839,-3.2560,103.9125,0.000,0.000,1.000,0.0000,0.0000,0.0000,0.0000,0.0000,0.0000,0
2026-04-17,08:25:27,91,1,0.0000,0.0003,-0.0207,0.6086,1.1559,0,1.0000,0,0,12.6296,-4.1753,85.3547,-1.6927,111.3675,0.000,0.000,1.000,0.0000,0.0000,0.0000,0.0000,0.0000,0.0000,0
2026-04-17,08:25:27,124,1,0.0000,0.0046,-0.0216,0.6367,1.1558,0,1.0000,0,0,12.3745,-3.2472,85.0320,-5.9425,117.8278,0.000,0.000,1.000,0.0000,0.0000,0.0000,0.0000,0.0000,0.0000,0
2026-04-17,08:25:27,167,1,0.0000,0.0102,-0.0226,0.6645,1.1558,0,1.0000,0,0,11.8248,10.4562,84.0735,-12.1179,101.3914,0.000,0.000,1.000,0.0000,0.0000,0.0000,0.0000,0.0000,0.0000,0
2026-04-17,08:25:27,210,1,0.0000,-0.0070,-0.0221,0.6503,1.1557,0,1.0000,0,0,13.5850,36.5978,82.8869,-20.9261,59.3322,0.000,0.000,1.000,0.0000,0.0000,0.0000,0.0000,0.0000,0.0000,0
2026-04-17,08:25:28,253,1,0.0000,0.0186,-0.0257,0.7563,1.1556,0,1.0000,0,0,14.3068,28.4554,82.1449,-18.5478,75.5749,0.000,0.000,1.000,0.0000,0.0000,0.0000,0.0000,0.0000,0.0000,0
2026-04-17,08:25:28,295,1,0.0000,-0.0045,-0.0246,0.7240,1.1556,0,1.0000,0,0,15.9402,34.0021,81.4570,-14.8233,89.2425,0.000,0.000,1.000,0.0000,0.0000,0.0000,0.0000,0.0000,0.0000,0
2026-04-17,08:25:28,338,1,0.0000,0.0229,-0.0264,0.7754,1.1556,0,1.0000,0,0,15.9923,-0.3566,81.3928,-6.1947,100.7686,0.000,0.000,1.000,0.0000,0.0000,0.0000,0.0000,0.0000,0.0000,0
2026-04-17,08:25:28,381,1,0.0000,0.0123,-0.0285,0.8395,1.1554,0,1.0000,0,0,15.6954,-7.0759,81.3278,-2.3706,109.8758,0.000,0.000,1.000,0.0000,0.0000,0.0000,0.0000,0.0000,0.0000,0
2026-04-17,08:25:28,423,1,0.0000,0.0176,-0.0309,0.9093,1.1553,0,1.0000,0,0,15.1580,-9.0166,81.4665,2.1468,117.8863,0.000,0.000,1.000,0.0000,0.0000,0.0000,0.0000,0.0000,0.0000,0
2026-04-17,08:25:28,465,1,0.0000,0.0150,-0.0322,0.9473,1.1553,0,1.0000,0,0,16.2717,31.8663,81.4942,0.7280,125.3071,0.000,0.000,1.000,0.0000,0.0000,0.0000,0.0000,0.0000,0.0000,0
2026-04-17,08:25:28,508,1,0.0000,-0.0027,-0.0317,0.9310,1.1553,0,1.0000,0,0,17.9916,38.2343,81.4627,0.0784,132.5428,0.000,0.000,1.000,0.0000,0.0000,0.0000,0.0000,0.0000,0.0000,0
2026-04-17,08:25:28,551,1,0.0000,-0.0489,-0.0243,0.7155,1.1555,0,1.0000,0,0,17.8266,-6.5402,80.7706,-11.7626,139.2488,0.000,0.000,1.000,0.0000,0.0000,0.0000,0.0000,0.0000,0.0000,0
2026-04-17,08:25:28,594,1,0.0000,-0.0302,-0.0166,0.4889,1.1560,0,1.0000,0,0,16.8373,-16.7014,79.2231,-26.6321,144.6543,0.000,0.000,1.000,0.0000,0.0000,0.0000,0.0000,0.0000,0.0000,0
2026-04-17,08:25:28,637,1,0.0000,-0.0365,-0.0094,0.2773,1.1563,0,1.0000,0,0,17.0367,1.9869,78.0372,-25.4606,149.0639,0.000,0.000,0.999,0.0000,0.0000,0.0000,0.0000,0.0000,0.0000,0
2026-04-17,08:25:28,680,1,0.0000,0.0003,-0.0100,0.2955,1.1564,0,1.0000,0,0,16.4892,-13.7508,77.2487,-19.8159,153.1384,0.000,0.000,0.995,0.0000,0.0000,0.0000,0.0000,0.0000,0.0000,0
2026-04-17,08:25:28,722,1,0.0000,-0.0108,-0.0089,0.2605,1.1564,0,1.0000,0,0,16.0587,-8.4259,76.6212,-15.7452,156.3658,0.000,0.000,0.998,0.0000,0.0000,0.0000,0.0000,0.0000,0.0000,0
2026-04-17,08:25:28,765,1,0.0000,-0.0237,-0.0068,0.2000,1.1566,0,1.0000,0,0,16.1152,6.1976,76.2459,-9.9538,131.7996,0.000,0.000,0.994,0.0000,0.0000,0.0000,0.0000,0.0000,0.0000,0
2026-04-17,08:25:28,798,1,0.0000,-0.0512,-0.0003,0.0102,1.1569,0,1.0000,0,0,16.7040,19.3007,76.3323,-3.5290,103.4189,0.000,0.000,0.991,0.0000,0.0000,0.0000,0.0000,0.0000,0.0000,0
2026-04-17,08:25:28,841,1,0.0000,0.0099,0.0021,0.0625,1.1570,0,1.0000,0,0,17.6759,21.6820,75.9096,-9.0445,75.0703,0.000,0.000,0.987,0.0000,0.0000,0.0000,0.0000,0.0000,0.0000,0
2026-04-17,08:25:28,884,1,0.0000,0.0046,0.0028,0.0824,1.1571,0,1.0000,0,0,18.3272,23.1156,74.6526,-23.2735,88.3992,0.000,0.000,0.983,0.0000,0.0000,0.0000,0.0000,0.0000,0.0000,0
2026-04-17,08:25:28,927,1,0.0000,-0.0080,0.0028,0.0809,1.1571,0,1.0000,0,0,19.7936,35.5204,73.7479,-21.8826,99.7554,0.000,0.000,0.979,0.0000,0.0000,0.0000,0.0000,0.0000,0.0000,0
2026-04-17,08:25:28,969,1,0.0000,-0.0248,0.0045,0.1330,1.1571,0,1.0000,0,0,20.6334,17.6685,73.1040,-18.0876,110.1250,0.000,0.000,0.975,0.0000,0.0000,0.0000,0.0000,0.0000,0.0000,0
2026-04-17,08:25:28,1002,1,0.0000,0.0094,0.0038,0.1129,1.1571,0,1.0000,0,0,20.8301,7.8027,72.7930,-14.0534,117.3888,0.000,0.000,0.972,0.0000,0.0000,0.0000,0.0000,0.0000,0.0000,0
2026-04-17,08:25:28,1045,1,0.0000,0.0148,0.0033,0.0975,1.1571,0,1.0000,0,0,20.1493,-8.5244,71.7523,-21.4698,124.8171,0.000,0.000,0.968,0.0000,0.0000,0.0000,0.0000,0.0000,0.0000,0
2026-04-17,08:25:28,1088,1,0.0000,-0.0024,0.0039,0.1161,1.1571,0,1.0000,0,0,20.2909,3.2962,71.4532,-15.9324,128.7517,0.000,0.000,0.965,0.0000,0.0000,0.0000,0.0000,0.0000,0.0000,0
2026-04-17,08:25:28,1131,1,0.0000,0.0037,0.0026,0.0774,1.1571,0,1.0000,0,0,20.8288,15.6923,71.5223,-3.7749,136.3415,0.000,0.000,0.961,0.0000,0.0000,0.0000,0.0000,0.0000,0.0000,0
2026-04-17,08:25:28,1173,1,0.0000,-0.0032,0.0022,0.0657,1.1571,0,1.0000,0,0,20.8745,4.1541,71.8436,1.8890,142.8283,0.000,0.000,0.957,0.0000,0.0000,0.0000,0.0000,0.0000,0.0000,0
2026-04-17,08:25:28,1206,1,0.0000,0.0023,0.0020,0.0589,1.1571,0,1.0000,0,0,21.2696,11.9200,71.8373,0.2445,146.4868,0.000,0.000,0.954,0.0000,0.0000,0.0000,0.0000,0.0000,0.0000,0
2026-04-17,08:25:29,1239,1,0.0000,-0.0083,0.0031,0.0908,1.1571,0,1.0000,0,0,21.8035,22.1715,71.7083,-2.5765,149.2916,0.000,0.000,0.951,0.0000,0.0000,0.0000,0.0000,0.0000,0.0000,0
2026-04-17,08:25:29,1282,1,0.0000,0.0013,0.0029,0.0842,1.1571,0,1.0000,0,0,23.9965,51.9880,71.0377,-12.6272,152.0385,0.000,0.000,0.947,0.0000,0.0000,0.0000,0.0000,0.0000,0.0000,0
2026-04-17,08:25:29,1325,1,0.0000,0.0006,0.0020,0.0589,1.1571,0,1.0000,0,0,24.7728,12.1391,69.6679,-25.2126,153.7526,0.000,0.000,0.943,0.0000,0.0000,0.0000,0.0000,0.0000,0.0000,0
2026-04-17,08:25:29,1358,1,0.0000,0.0082,0.0030,0.0892,1.1571,0,1.0000,0,0,25.3064,16.0298,68.7321,-26.0087,154.5072,0.000,0.000,0.940,0.0000,0.0000,0.0000,0.0000,0.0000,0.0000,0
,,1400,1,0.0000,-0.0072,0.0039,0.1145,1.1571,0,1.0000,0,0,24.7643,-14.9191,68.0059,-18.1828,155.8231,0.000,0.000,0.936,0.0000,0.0000,0.0000,0.0000,0.0000,0.0000,0
2026-04-17,08:25:29,1433,1,0.0000,-0.0040,0.0010,0.0303,1.1571,0,1.0000,0,0,24.9776,6.6359,67.5350,-15.0794,156.2903,0.000,0.000,0.933,0.0000,0.0000,0.0000,0.0000,0.0000,0.0000,0
2026-04-17,08:25:29,1476,1,0.0000,0.0069,0.0020,0.0589,1.1571,0,1.0000,0,0,25.5166,16.1557,66.9238,-13.6193,156.8654,0.000,0.000,0.929,0.0000,0.0000,0.0000,0.0000,0.0000,0.0000,0
2026-04-17,08:25:29,1519,1,0.0000,-0.0168,0.0030,0.0875,1.1571,0,1.0000,0,0,26.6081,27.4628,66.0978,-16.4036,157.4180,0.000,0.000,0.925,0.0000,0.0000,0.0000,0.0000,0.0000,0.0000,0
2026-04-17,08:25:29,1561,1,0.0000,-0.0044,0.0044,0.1297,1.1571,0,1.0000,0,0,27.6713,20.8598,65.1629,-18.6191,157.0005,0.000,0.000,0.921,0.0000,0.0000,0.0000,0.0000,0.0000,0.0000,0
2026-04-17,08:25:29,1605,1,0.0000,0.0031,0.0022,0.0641,1.1571,0,1.0000,0,0,27.8947,3.4041,64.4063,-16.4324,156.2519,0.000,0.000,0.917,0.0000,0.0000,0.0000,0.0000,0.0000,0.0000,0
2026-04-17,08:25:29,1648,1,0.0000,-0.0008,0.0017,0.0488,1.1571,0,1.0000,0,0,27.7085,-8.0129,64.2286,-6.2882,155.7519,0.000,0.000,0.913,0.0000,0.0000,0.0000,0.0000,0.0000,0.0000,0
2026-04-17,08:25:29,1690,1,0.0000,-0.0087,0.0042,0.1229,1.1571,0,1.0000,0,0,25.9921,-48.6467,64.2511,-0.2256,155.6682,0.000,0.000,0.909,0.0000,0.0000,0.0000,0.0000,0.0000,0.0000,0
2026-04-17,08:25:29,1734,1,0.0000,-0.0103,0.0051,0.1502,1.1572,0,1.0000,0,0,25.1905,-16.4002,63.9323,-4.4194,156.3107,0.000,0.000,0.905,0.0000,0.0000,0.0000,0.0000,0.0000,0.0000,0
2026-04-17,08:25:29,1778,1,0.0000,0.0109,0.0045,0.1316,1.1572,0,1.0000,0,0,24.6091,-13.4162,63.3492,-9.7304,157.0173,0.000,0.000,0.901,0.0000,0.0000,0.0000,0.0000,0.0000,0.0000,0
2026-04-17,08:25:29,1821,1,0.0000,0.0034,0.0049,0.1442,1.1572,0,1.0000,0,0,24.8592,-0.1287,62.9932,-8.0758,158.1925,0.000,0.000,0.897,0.0000,0.0000,0.0000,0.0000,0.0000,0.0000,0
2026-04-17,08:25:29,1864,1,0.0000,0.0034,0.0057,0.1674,1.1572,0,1.0000,0,0,25.1439,10.2288,62.3523,-11.8362,158.9494,0.000,0.000,0.893,0.0000,0.0000,0.0000,0.0000,0.0000,0.0000,0
2026-04-17,08:25:29,1907,1,0.0000,0.0123,0.0033,0.0958,1.1572,0,1.0000,0,0,26.3505,26.9989,61.7494,-12.4819,159.7204,0.000,0.000,0.889,0.0000,0.0000,0.0000,0.0000,0.0000,0.0000,0
2026-04-17,08:25:29,1950,1,0.0000,-0.0070,0.0035,0.1044,1.1572,0,1.0000,0,0,27.1939,19.2685,61.1899,-12.3185,160.6378,0.000,0.000,0.885,0.0000,0.0000,0.0000,0.0000,0.0000,0.0000,0
2026-04-17,08:25:29,1984,1,0.0000,-0.0015,0.0047,0.1388,1.1572,0,1.0000,0,0,28.0892,22.6841,60.2214,-16.1538,160.5345,0.000,0.000,0.883,0.0000,0.0000,0.0000,0.0000,0.0000,0.0000,0
2026-04-17,08:25:29,2026,1,0.0000,0.0004,0.0050,0.1475,1.1572,0,1.0000,0,0,27.7530,-13.7010,60.0479,-5.4571,161.5263,0.000,0.000,0.879,0.0000,0.0000,0.0000,0.0000,0.0000,0.0000,0
2026-04-17,08:25:29,2069,1,0.0000,-0.0092,0.0070,0.2061,1.1572,0,1.0000,0,0,27.4170,-9.1254,60.2915,1.4262,163.0104,0.000,0.000,0.875,0.0000,0.0000,0.0000,0.0000,0.0000,0.0000,0
2026-04-17,08:25:29,2112,1,0.0000,0.0051,0.0048,0.1416,1.1572,0,1.0000,0,0,26.8163,-17.0281,60.1537,-0.2285,163.6712,0.000,0.000,0.871,0.0000,0.0000,0.0000,0.0000,0.0000,0.0000,0
2026-04-17,08:25:29,2153,1,0.0000,-0.0027,0.0056,0.1639,1.1573,0,1.0000,0,0,26.1346,-19.3411,60.4837,5.9795,164.6468,0.000,0.000,0.867,0.0000,0.0000,0.0000,0.0000,0.0000,0.0000,0
2026-04-17,08:25:29,2195,1,0.0000,-0.0052,0.0058,0.1713,1.1573,0,1.0000,0,0,25.5817,-15.2465,60.9603,9.5008,165.4768,0.000,0.000,0.863,0.0000,0.0000,0.0000,0.0000,0.0000,0.0000,0
2026-04-17,08:25:30,2237,1,0.0000,0.0020,0.0065,0.1900,1.1573,0,1.0000,0,0,25.0403,-15.2874,61.3813,10.1807,166.0894,0.000,0.000,0.859,0.0000,0.0000,0.0000,0.0000,0.0000,0.0000,0
2026-04-17,08:25:30,2280,1,0.0000,-0.0079,0.0070,0.2062,1.1573,0,1.0000,0,0,24.8251,-7.7282,61.8676,10.4628,166.4864,0.000,0.000,0.855,0.0000,0.0000,0.0000,0.0000,0.0000,0.0000,0
2026-04-17,08:25:30,2313,1,0.0000,-0.0048,0.0071,0.2074,1.1573,0,1.0000,0,0,24.5654,-11.8103,61.9953,6.8988,166.4359,0.000,0.000,0.852,0.0000,0.0000,0.0000,0.0000,0.0000,0.0000,0
2026-04-17,08:25:30,2356,1,0.0880,0.0101,0.0059,0.1726,1.1573,0,1.0000,11,1,23.9818,-13.7445,62.2906,7.0804,166.3289,0.000,0.000,0.848,0.0000,0.0000,0.0000,0.0000,0.0000,0.0000,0
2026-04-17,08:25:30,2399,1,0.0880,0.0212,0.0181,0.5332,1.1572,0,1.0000,11,1,23.4547,-16.0576,62.4648,5.3763,166.2858,0.000,0.000,0.877,0.0000,0.0000,0.0000,0.0000,0.0000,0.0000,0
2026-04-17,08:25:30,2442,1,0.0880,0.0191,0.0293,0.8619,1.1570,0,1.0000,11,1,22.7726,-16.5737,63.0394,11.1697,166.5228,0.020,0.000,0.917,0.0000,0.0000,0.0000,0.0000,0.0000,0.0000,0
2026-04-17,08:25:30,2476,1,4.0880,2.5827,0.2068,6.0833,1.1524,0,1.0000,511,1,22.4236,-18.9003,63.2591,7.4952,166.7084,0.080,0.000,0.947,0.0000,0.0000,0.0000,0.0000,0.0000,0.0000,0
2026-04-17,08:25:30,2519,1,4.0880,4.1069,0.0594,1.7483,1.1109,0,1.0000,511,1,21.9585,-18.9165,63.3889,5.6787,166.4163,0.160,0.000,0.987,0.0000,0.0000,0.0000,0.0000,0.0000,0.0000,0
2026-04-17,08:25:30,2552,1,4.0960,4.1474,0.0701,2.0619,1.0821,0,1.0000,512,1,21.1498,-26.3012,63.8337,10.1877,166.6286,0.220,0.000,1.000,0.0000,0.0000,0.0000,0.0000,0.0000,0.0000,0
2026-04-17,08:25:30,2585,1,4.0880,4.0456,0.0643,1.8903,1.0533,0,1.0000,511,1,20.3023,-30.9211,64.2407,11.2350,166.9076,0.280,0.000,1.000,0.0000,0.0000,0.0000,0.0000,0.0000,0.0000,0
2026-04-17,08:25:30,2629,1,4.0880,4.0681,0.0773,2.2740,1.0158,0,1.0000,511,1,19.5331,-18.6366,64.6964,11.2304,167.2510,0.360,0.000,1.000,0.0000,0.0000,0.0000,0.0000,0.0000,0.0000,0
2026-04-17,08:25:30,2662,1,4.0880,4.0594,0.0670,1.9704,0.9869,0,1.0000,511,1,18.7148,-24.1583,65.2852,14.9867,167.5220,0.420,0.000,0.998,0.0000,0.0000,0.0000,0.0000,0.0000,0.0000,0
2026-04-17,08:25:30,2695,1,4.0880,4.1377,0.0601,1.7682,0.9572,0,1.0000,511,1,18.1998,-18.1420,65.7883,14.4522,167.9255,0.480,0.000,0.995,0.0000,0.0000,0.0000,0.0000,0.0000,0.0000,0
2026-04-17,08:25:30,2738,1,4.0880,4.0333,0.0760,2.2352,0.9198,0,1.0000,511,1,17.5761,-19.9236,65.9012,5.8316,168.0589,0.560,0.000,0.991,0.0000,0.0000,0.0000,0.0000,0.0000,0.0000,0
2026-04-17,08:25:30,2772,1,4.0880,4.0691,0.0653,1.9193,0.8905,0,1.0000,511,1,17.0358,-17.6548,65.9231,3.0228,168.1292,0.620,0.000,0.988,0.0000,0.0000,0.0000,0.0000,0.0000,0.0000,0
2026-04-17,08:25:30,2815,1,4.0880,4.1443,0.0630,1.8542,0.8522,0,1.0000,511,1,16.3723,-15.8479,66.0774,3.6348,168.2825,0.700,0.000,0.984,0.0000,0.0000,0.0000,0.0000,0.0000,0.0000,0
2026-04-17,08:25:30,2857,1,4.0880,4.1114,0.0584,1.7190,0.8146,0,1.0000,511,1,15.9614,-11.3132,66.2205,4.0227,168.3165,0.760,0.000,0.981,0.0000,0.0000,0.0000,0.0000,0.0000,0.0000,0
2026-04-17,08:25:30,2891,1,4.0960,4.1239,0.0668,1.9654,0.7858,0,1.0000,512,1,15.5569,-10.4705,66.5537,7.5349,168.4300,0.820,0.000,0.978,0.0000,0.0000,0.0000,0.0000,0.0000,0.0000,0
2026-04-17,08:25:30,2935,1,4.0960,4.1101,0.0606,1.7834,0.7483,0,1.0000,512,1,15.1727,-9.5992,67.1160,10.5966,168.6683,0.900,0.000,0.974,0.0000,0.0000,0.0000,0.0000,0.0000,0.0000,0
2026-04-17,08:25:30,2977,1,4.0880,4.0256,0.0817,2.4026,0.7106,0,1.0000,511,1,15.0508,-1.5863,67.1830,4.0841,168.7899,0.980,0.000,0.970,0.0000,0.0000,0.0000,0.0000,0.0000,0.0000,0
2026-04-17,08:25:30,3020,1,4.0880,3.9918,0.0672,1.9754,0.6732,0,1.0000,511,1,14.8394,-4.6343,67.1312,0.4765,168.8997,1.000,0.000,0.966,0.0000,0.0000,0.0000,0.0000,0.0000,0.0000,0
2026-04-17,08:25:30,3063,1,4.0960,4.1671,0.0581,1.7087,0.6352,0,1.0000,512,1,14.5154,-6.8801,67.2518,2.2619,168.9928,1.000,0.000,0.962,0.0000,0.0000,0.0000,0.0000,0.0000,0.0000,0
2026-04-17,08:25:30,3097,1,4.0880,4.1289,0.0573,1.6864,0.6058,0,1.0000,511,1,14.1164,-10.9978,67.4484,4.2232,169.1202,1.000,0.000,0.959,0.0000,0.0000,0.0000,0.0000,0.0000,0.0000,0
2026-04-17,08:25:30,3140,1,4.0880,4.1142,0.0594,1.7484,0.5689,0,1.0000,511,1,13.6367,-11.5717,67.8041,7.0515,169.3436,1.000,0.000,0.955,0.0000,0.0000,0.0000,0.0000,0.0000,0.0000,0
2026-04-17,08:25:30,3173,1,4.0880,4.0755,0.0544,1.5988,0.5400,0,1.0000,511,1,13.4603,-6.5276,68.1093,8.2968,169.4564,1.000,0.000,0.952,0.0000,0.0000,0.0000,0.0000,0.0000,0.0000,0
2026-04-17,08:25:30,3215,1,4.0880,4.2221,0.0538,1.5833,0.5020,0,1.0000,511,1,13.1651,-7.1542,68.3217,5.6365,169.6056,1.000,0.000,0.948,0.0000,0.0000,0.0000,0.0000,0.0000,0.0000,0
2026-04-17,08:25:31,3258,1,4.0880,4.0271,0.0567,1.6687,0.4647,0,1.0000,511,1,13.2061,-0.3062,68.2098,-0.3377,169.7432,1.000,0.000,0.944,0.0000,0.0000,0.0000,0.0000,0.0000,0.0000,0
2026-04-17,08:25:31,3291,1,4.0880,4.1224,0.0597,1.7564,0.4355,0,1.0000,511,1,13.1279,-3.3944,68.2608,0.9569,169.7536,0.970,0.000,0.941,0.0000,0.0000,0.0000,0.0000,0.0000,0.0000,0
2026-04-17,08:25:31,3334,1,4.0880,4.0261,0.0546,1.6051,0.3982,0,1.0000,511,1,12.7467,-7.6167,68.7845,8.4761,169.9334,1.000,0.000,0.937,0.0000,0.0000,0.0000,0.0000,0.0000,0.0000,0
2026-04-17,08:25:31,3367,1,4.0880,4.0290,0.0638,1.8751,0.3693,0,1.0000,511,1,12.5636,-5.7319,69.1044,8.6880,169.9692,1.000,0.000,0.934,0.0000,0.0000,0.0000,0.0000,0.0000,0.0000,0
2026-04-17,08:25:31,3400,1,4.0880,4.0196,0.0666,1.9599,0.3397,0,1.0000,511,1,12.5640,-1.1458,69.0673,2.8536,170.0030,0.990,0.000,0.931,0.0000,0.0000,0.0000,0.0000,0.0000,0.0000,0
2026-04-17,08:25:31,3443,1,4.0880,4.0820,0.0611,1.7977,0.3030,0,1.0000,511,1,12.3695,-2.9607,69.0801,1.2747,169.9633,0.950,0.000,0.927,0.0000,0.0000,0.0000,0.0000,0.0000,0.0000,0
2026-04-17,08:25:31,3478,1,4.0880,4.0543,0.0556,1.6341,0.2752,0,1.0000,511,1,12.2589,-3.6021,69.2394,2.7928,170.1942,0.920,0.000,0.924,0.0000,0.0000,0.0000,0.0000,0.0000,0.0000,0
2026-04-17,08:25:31,3510,1,4.0880,4.1149,0.0525,1.5434,0.2444,0,1.0000,511,1,12.1342,-7.2479,69.1497,-0.8106,170.2955,0.890,0.000,0.921,0.0000,0.0000,0.0000,0.0000,0.0000,0.0000,0
2026-04-17,08:25:31,3553,1,4.0880,4.0840,0.0604,1.7776,0.2068,0,1.0000,511,1,12.0466,1.3769,69.0055,-2.1170,170.3144,0.850,0.000,0.917,0.0000,0.0000,0.0000,0.0000,0.0000,0.0000,0
2026-04-17,08:25:31,3586,1,4.0880,4.1340,0.0462,1.3596,0.1787,0,1.0000,511,1,11.8639,-3.7518,69.3139,4.2469,170.3859,0.820,0.000,0.914,0.0000,0.0000,0.0000,0.0000,0.0000,0.0000,0
2026-04-17,08:25:31,3629,1,4.0880,4.0306,0.0622,1.8282,0.1403,0,1.0000,511,1,11.7079,-3.0734,69.6953,6.7145,170.5750,0.780,0.000,0.910,0.0000,0.0000,0.0000,0.0000,0.0000,0.0000,0
2026-04-17,08:25:31,3662,1,4.0880,4.1103,0.0497,1.4628,0.1113,0,1.0000,511,1,11.6359,-1.3335,69.8649,5.6475,170.8204,0.750,0.000,0.907,0.0000,0.0000,0.0000,0.0000,0.0000,0.0000,0
2026-04-17,08:25:31,3703,1,4.0960,4.1262,0.0454,1.3355,0.0777,0,1.0000,512,1,11.5142,-4.8553,70.1237,5.3687,170.9854,0.720,0.000,0.904,0.0000,0.0000,0.0000,0.0000,0.0000,0.0000,0
2026-04-17,08:25:31,3737,1,4.0960,4.0616,0.0534,1.5708,0.0468,0,1.0000,512,1,11.3138,-4.7372,70.2680,4.5773,171.1646,0.690,0.000,0.901,0.0000,0.0000,0.0000,0.0000,0.0000,0.0000,0
2026-04-17,08:25:31,3771,1,4.0880,4.1141,0.0468,1.3774,0.0170,0,1.0000,511,1,11.2107,-4.5464,70.3855,3.7158,171.3069,0.660,0.000,0.898,0.0000,0.0000,0.0000,0.0000,0.0000,0.0000,0
2026-04-17,08:25:31,3812,1,4.0880,2.2458,-0.1556,4.5774,-0.0180,0,1.0000,511,1,11.3086,2.1821,70.8007,8.7879,171.5450,0.620,0.000,0.894,0.0000,0.0000,0.0000,0.0000,0.0000,0.0000,0
2026-04-17,08:25:31,3854,1,4.0880,0.1943,0.0037,0.1082,-0.0149,0,1.0000,511,1,11.5243,6.9750,71.2581,8.6433,171.8584,0.580,0.000,0.890,0.0000,0.0000,0.0000,0.0000,0.0000,0.0000,0
2026-04-17,08:25:31,3898,1,2.3600,0.0588,0.0001,0.0036,-0.0151,0,1.0000,295,1,11.5707,0.2580,71.6034,8.6685,171.6237,0.540,0.000,0.886,0.0000,0.0000,0.0000,0.0000,0.0000,0.0000,0
2026-04-17,08:25:31,3941,1,2.3600,0.0542,-0.0076,0.2235,-0.0152,0,1.0000,295,1,11.6751,3.2076,72.1867,11.7620,171.6559,0.500,0.000,0.882,0.0000,0.0000,0.0000,0.0000,0.0000,0.0000,0
2026-04-17,08:25:31,3984,1,2.1120,-0.0205,-0.0039,0.1133,-0.0152,0,1.0000,264,1,11.7684,2.7537,72.6287,10.7763,171.7074,0.460,0.000,0.878,0.0000,0.0000,0.0000,0.0000,0.0000,0.0000,0
2026-04-17,08:25:31,4019,1,0.4480,-0.0123,-0.0034,0.0992,-0.0152,0,1.0000,56,1,11.8657,2.8689,72.8319,8.0963,171.6766,0.430,0.000,0.875,0.0000,0.0000,0.0000,0.0000,0.0000,0.0000,0
2026-04-17,08:25:31,4053,1,0.3840,-0.0143,-0.0035,0.1027,-0.0152,0,1.0000,48,1,11.9274,1.8166,72.9314,5.4079,171.5911,0.400,0.000,0.872,0.0000,0.0000,0.0000,0.0000,0.0000,0.0000,0
2026-04-17,08:25:31,4087,1,0.2720,0.0020,-0.0032,0.0956,-0.0152,0,1.0000,34,1,11.9511,0.9758,73.0588,4.8117,171.5918,0.370,0.000,0.869,0.0000,0.0000,0.0000,0.0000,0.0000,0.0000,0
2026-04-17,08:25:31,4130,1,0.2720,0.0130,-0.0039,0.1135,-0.0152,0,1.0000,34,1,11.9407,-0.1596,73.2462,4.6723,171.6141,0.330,0.000,0.865,0.0000,0.0000,0.0000,0.0000,0.0000,0.0000,0
2026-04-17,08:25:31,4163,1,0.2720,0.0028,-0.0036,0.1064,-0.0152,0,1.0000,34,1,11.9035,-1.2850,73.3058,3.3047,171.5885,0.300,0.000,0.862,0.0000,0.0000,0.0000,0.0000,0.0000,0.0000,0
2026-04-17,08:25:31,4206,1,0.2160,-0.0090,-0.0035,0.1027,-0.0152,0,1.0000,27,1,11.8286,-1.2131,73.4429,3.3856,171.5750,0.260,0.000,0.858,0.0000,0.0000,0.0000,0.0000,0.0000,0.0000,0
2026-04-17,08:25:32,4249,1,0.2160,-0.0013,-0.0041,0.1206,-0.0152,0,1.0000,27,1,11.8313,0.0958,73.6725,4.7455,171.5981,0.220,0.000,0.854,0.0000,0.0000,0.0000,0.0000,0.0000,0.0000,0
2026-04-17,08:25:32,4291,1,0.2240,0.0086,-0.0036,0.1064,-0.0152,0,1.0000,28,1,11.9142,1.4888,73.8323,4.2915,171.5068,0.180,0.000,0.850,0.0000,0.0000,0.0000,0.0000,0.0000,0.0000,0
2026-04-17,08:25:32,4324,1,0.2400,0.0027,-0.0031,0.0921,-0.0152,0,1.0000,30,1,11.9389,0.8785,73.9870,4.5095,171.4199,0.150,0.000,0.847,0.0000,0.0000,0.0000,0.0000,0.0000,0.0000,0
2026-04-17,08:25:32,4366,1,0.2400,0.0111,-0.0042,0.1241,-0.0152,0,1.0000,30,1,11.9708,0.8972,74.0322,1.9521,171.3465,0.110,0.000,0.843,0.0000,0.0000,0.0000,0.0000,0.0000,0.0000,0
2026-04-17,08:25:32,4399,1,0.2400,0.0028,-0.0051,0.1488,-0.0152,0,1.0000,30,1,11.9630,-0.0288,74.0754,1.6420,171.2388,0.080,0.000,0.840,0.0000,0.0000,0.0000,0.0000,0.0000,0.0000,0
2026-04-17,08:25:32,4433,1,0.2400,-0.0042,-0.0037,0.1100,-0.0152,0,1.0000,30,1,11.9959,1.0488,74.1077,1.3377,171.1628,0.050,0.000,0.837,0.0000,0.0000,0.0000,0.0000,0.0000,0.0000,0
2026-04-17,08:25:32,4475,1,0.2400,-0.0022,-0.0040,0.1170,-0.0152,0,1.0000,30,1,12.1559,4.3949,74.2363,2.2798,171.2639,0.010,0.000,0.833,0.0000,0.0000,0.0000,0.0000,0.0000,0.0000,0
2026-04-17,08:25:32,4518,1,0.0000,-0.0122,-0.0029,0.0850,-0.0152,0,1.0000,0,1,12.4250,4.9973,74.2780,1.5735,171.3786,0.000,0.000,0.829,0.0000,0.0000,0.0000,0.0000,0.0000,0.0000,0
2026-04-17,08:25:32,4552,1,0.0000,0.0079,-0.0039,0.1135,-0.0152,0,1.0000,0,1,12.8765,8.5739,74.4351,2.2422,171.4141,0.000,0.000,0.827,0.0000,0.0000,0.0000,0.0000,0.0000,0.0000,0
2026-04-17,08:25:32,4585,1,0.0000,0.0033,-0.0041,0.1204,-0.0152,0,1.0000,0,1,13.2227,8.2785,74.5923,3.5410,171.4278,0.000,0.000,0.824,0.0000,0.0000,0.0000,0.0000,0.0000,0.0000,0
2026-04-17,08:25:32,4628,1,0.0000,-0.0008,-0.0047,0.1382,-0.0152,0,1.0000,0,1,13.4240,3.2578,74.8806,5.7270,171.5190,0.000,0.000,0.820,0.0000,0.0000,0.0000,0.0000,0.0000,0.0000,0
2026-04-17,08:25:32,4671,1,0.0000,0.0144,-0.0031,0.0923,-0.0152,0,1.0000,0,1,13.6976,4.5556,75.2471,7.6242,171.6494,0.000,0.000,0.816,0.0000,0.0000,0.0000,0.0000,0.0000,0.0000,0
2026-04-17,08:25:32,4714,1,0.0000,-0.0032,-0.0026,0.0779,-0.0152,0,1.0000,0,1,13.8950,3.8480,75.7405,10.5385,171.7504,0.000,0.000,0.812,0.0000,0.0000,0.0000,0.0000,0.0000,0.0000,0
2026-04-17,08:25:32,4747,1,0.0000,-0.0012,-0.0029,0.0850,-0.0152,0,1.0000,0,1,13.9598,-0.6547,76.2176,12.9424,171.7791,0.000,0.000,0.809,0.0000,0.0000,0.0000,0.0000,0.0000,0.0000,0
2026-04-17,08:25:32,4790,1,0.0000,-0.0057,-0.0027,0.0780,-0.0151,0,1.0000,0,1,13.8101,-4.9245,76.9849,16.5048,171.7304,0.000,0.000,0.805,0.0000,0.0000,0.0000,0.0000,0.0000,0.0000,0
2026-04-17,08:25:32,4823,1,0.0000,0.0006,-0.0034,0.0992,-0.0152,0,1.0000,0,1,13.6214,-8.8908,77.4760,16.1093,171.7359,0.000,0.000,0.802,0.0000,0.0000,0.0000,0.0000,0.0000,0.0000,0
2026-04-17,08:25:32,4866,1,0.0000,0.0095,-0.0042,0.1241,-0.0152,0,1.0000,0,1,13.3926,-10.3303,78.1842,17.4247,171.7495,0.000,0.000,0.798,0.0000,0.0000,0.0000,0.0000,0.0000,0.0000,0
2026-04-17,08:25:32,4909,1,0.0000,0.0041,-0.0031,0.0923,-0.0152,0,1.0000,0,1,13.1515,-11.4779,79.1872,22.6763,172.0051,0.000,0.000,0.794,0.0000,0.0000,0.0000,0.0000,0.0000,0.0000,0
2026-04-17,08:25:32,4952,1,0.0000,0.0047,-0.0029,0.0851,-0.0152,0,1.0000,0,1,11.7047,-39.0024,80.4162,27.3259,172.3071,0.000,0.000,0.790,0.0000,0.0000,0.0000,0.0000,0.0000,0.0000,0
2026-04-17,08:25:32,4995,1,0.0000,0.0030,-0.0034,0.0992,-0.0152,0,1.0000,0,1,10.0399,-43.0109,81.9554,33.5031,173.0302,0.000,0.000,0.786,0.0000,0.0000,0.0000,0.0000,0.0000,0.0000,0
2026-04-17,08:25:32,5038,1,0.0000,-0.0088,-0.0027,0.0780,-0.0152,0,1.0000,0,1,8.4282,-41.8890,83.4010,34.0202,173.5453,0.000,0.000,0.782,0.0000,0.0000,0.0000,0.0000,0.0000,0.0000,0
2026-04-17,08:25:32,5081,1,0.0000,0.0100,-0.0047,0.1382,-0.0152,0,1.0000,0,1,7.0041,-38.0738,84.8006,33.4723,173.9973,0.000,0.000,0.778,0.0000,0.0000,0.0000,0.0000,0.0000,0.0000,0
2026-04-17,08:25:32,5123,1,0.0000,0.0029,-0.0025,0.0743,-0.0152,0,1.0000,0,0,4.9841,-53.9998,86.0702,31.2201,174.4753,0.000,0.000,0.774,0.0000,0.0000,0.0000,0.0000,0.0000,0.0000,0
2026-04-17,08:25:32,5165,1,0.0000,0.0009,-0.0039,0.1135,-0.0152,0,1.0000,0,0,2.8902,-53.8776,86.9135,23.8993,174.4489,0.000,0.000,0.770,0.0000,0.0000,0.0000,0.0000,0.0000,0.0000,0
2026-04-17,08:25:32,5198,1,0.0000,-0.0046,-0.0039,0.1133,-0.0152,0,1.0000,0,0,1.5068,-45.4115,87.5354,21.3813,174.3732,0.000,0.000,0.767,0.0000,0.0000,0.0000,0.0000,0.0000,0.0000,0
2026-04-17,08:25:33,5241,1,0.0000,-0.0023,-0.0039,0.1133,-0.0152,0,1.0000,0,0,0.0593,-35.5077,88.2252,17.5070,174.0300,0.000,0.000,0.763,0.0000,0.0000,0.0000,0.0000,0.0000,0.0000,0
2026-04-17,08:25:33,5284,1,0.0000,0.0154,-0.0037,0.1098,-0.0152,0,1.0000,0,0,-0.8891,-22.2718,88.6573,13.1984,173.9926,0.000,0.000,0.759,0.0000,0.0000,0.0000,0.0000,0.0000,0.0000,0
2026-04-17,08:25:33,5318,1,0.0000,-0.0017,-0.0046,0.1345,-0.0152,0,1.0000,0,0,-1.2690,-12.5654,89.3229,16.8891,173.9662,0.000,0.000,0.756,0.0000,0.0000,0.0000,0.0000,0.0000,0.0000,0
2026-04-17,08:25:33,5361,1,0.0000,-0.0098,-0.0029,0.0851,-0.0152,0,1.0000,0,0,-1.5107,-6.4572,89.9214,13.6103,173.5642,0.000,0.000,0.752,0.0000,0.0000,0.0000,0.0000,0.0000,0.0000,0
2026-04-17,08:25:33,5394,1,0.0000,0.0019,-0.0045,0.1313,-0.0152,0,1.0000,0,0,-2.0992,-20.2059,89.6602,1.5384,173.2838,0.000,0.000,0.749,0.0000,0.0000,0.0000,0.0000,0.0000,0.0000,0
2026-04-17,08:25:33,5428,1,0.0000,-0.0065,-0.0039,0.1134,-0.0152,0,1.0000,0,0,-2.6268,-18.7740,89.2090,-1.7632,173.1014,0.000,0.000,0.747,0.0000,0.0000,0.0000,0.0000,0.0000,0.0000,0
2026-04-17,08:25:33,5471,1,0.0000,-0.0030,-0.0025,0.0742,-0.0152,0,1.0000,0,0,-3.4180,-13.1116,89.0210,-2.9466,172.8459,0.000,0.000,0.743,0.0000,0.0000,0.0000,0.0000,0.0000,0.0000,0
2026-04-17,08:25:33,5514,1,0.0000,0.0011,-0.0039,0.1133,-0.0152,0,1.0000,0,0,-3.3752,2.6266,89.1099,0.5269,173.0145,0.000,0.000,0.739,0.0000,0.0000,0.0000,0.0000,0.0000,0.0000,0
2026-04-17,08:25:33,5557,1,0.0000,0.0157,-0.0032,0.0955,-0.0152,0,1.0000,0,0,-3.1783,6.4055,89.2682,2.6832,173.7831,0.000,0.000,0.735,0.0000,0.0000,0.0000,0.0000,0.0000,0.0000,0
2026-04-17,08:25:33,5598,1,0.0000,0.0086,-0.0030,0.0888,-0.0152,0,1.0000,0,0,-2.8612,9.1364,89.4675,3.5538,173.9620,0.000,0.000,0.731,0.0000,0.0000,0.0000,0.0000,0.0000,0.0000,0
2026-04-17,08:25:33,5640,1,0.0000,-0.0107,-0.0037,0.1098,-0.0152,0,1.0000,0,0,-2.5682,7.9469,89.6023,2.4623,174.0055,0.000,0.000,0.727,0.0000,0.0000,0.0000,0.0000,0.0000,0.0000,0
2026-04-17,08:25:33,5683,1,0.0000,0.0143,-0.0031,0.0918,-0.0152,0,1.0000,0,0,-2.1383,11.4660,89.6277,1.1073,173.8938,0.000,0.000,0.723,0.0000,0.0000,0.0000,0.0000,0.0000,0.0000,0
2026-04-17,08:25:33,5726,1,0.0000,-0.0006,-0.0037,0.1100,-0.0152,0,1.0000,0,0,-1.9263,2.6361,90.0186,6.4586,166.8572,0.000,0.000,0.719,0.0000,0.0000,0.0000,0.0000,0.0000,0.0000,0
2026-04-17,08:25:33,5759,1,0.0000,-0.0042,-0.0034,0.0994,-0.0152,0,1.0000,0,0,-1.8342,3.9738,91.2863,23.9921,167.9015,0.000,0.000,0.716,0.0000,0.0000,0.0000,0.0000,0.0000,0.0000,0
2026-04-17,08:25:33,5802,1,0.0000,-0.0216,-0.0036,0.1063,-0.0152,0,1.0000,0,0,-1.9416,-3.5294,93.7313,44.6650,169.1053,0.000,0.000,0.712,0.0000,0.0000,0.0000,0.0000,0.0000,0.0000,0
2026-04-17,08:25:33,5845,1,0.0000,-0.0025,-0.0029,0.0849,-0.0152,0,1.0000,0,0,-2.0447,-3.3165,96.6161,57.8009,170.2830,0.000,0.000,0.708,0.0000,0.0000,0.0000,0.0000,0.0000,0.0000,0
2026-04-17,08:25:33,5888,1,0.0000,0.0052,-0.0034,0.0994,-0.0152,0,1.0000,0,0,-2.9066,-21.8620,99.6268,62.8717,171.2088,0.000,0.000,0.704,0.0000,0.0000,0.0000,0.0000,0.0000,0.0000,0
2026-04-17,08:25:33,5921,1,0.0000,0.0019,-0.0045,0.1312,-0.0152,0,1.0000,0,0,-3.8206,-27.3153,102.0941,67.9643,171.7060,0.000,0.000,0.701,0.0000,0.0000,0.0000,0.0000,0.0000,0.0000,0
2026-04-17,08:25:33,5954,1,0.0000,-0.0047,-0.0047,0.1382,-0.0152,0,1.0000,0,0,-4.9818,-36.9182,105.4320,84.5295,172.2280,0.000,0.000,0.698,0.0000,0.0000,0.0000,0.0000,0.0000,0.0000,0
2026-04-17,08:25:33,5997,1,0.0000,0.0027,-0.0052,0.1525,-0.0152,0,1.0000,0,0,-6.9332,-47.8893,111.4508,117.8692,172.8606,0.000,0.000,0.694,0.0000,0.0000,0.0000,0.0000,0.0000,0.0000,0
2026-04-17,08:25:33,6030,1,0.0000,0.0045,-0.0034,0.0992,-0.0152,0,1.0000,0,0,-8.6676,-51.6648,116.5804,133.6830,173.5446,0.000,0.000,0.691,0.0000,0.0000,0.0000,0.0000,0.0000,0.0000,0
2026-04-17,08:25:33,6073,1,0.0000,-0.0027,-0.0041,0.1205,-0.0152,0,1.0000,0,0,-10.2555,-34.0308,122.8572,135.2978,174.6554,0.000,0.000,0.687,0.0000,0.0000,0.0000,0.0000,0.0000,0.0000,0
2026-04-17,08:25:33,6116,1,0.0000,0.0111,-0.0043,0.1274,-0.0152,0,1.0000,0,0,-10.9895,-13.5450,128.5092,125.7854,175.7090,0.000,0.000,0.683,0.0000,0.0000,0.0000,0.0000,0.0000,0.0000,0
2026-04-17,08:25:33,6158,1,0.0000,-0.0116,-0.0035,0.1027,-0.0152,0,1.0000,0,0,-10.5496,18.0264,132.8683,104.4755,176.2836,0.000,0.000,0.679,0.0000,0.0000,0.0000,0.0000,0.0000,0.0000,0
2026-04-17,08:25:33,6201,1,0.0000,-0.0014,-0.0034,0.0992,-0.0152,0,1.0000,0,0,-9.3000,31.7317,135.1689,64.5382,176.0408,0.000,0.000,0.675,0.0000,0.0000,0.0000,0.0000,0.0000,0.0000,0
2026-04-17,08:25:34,6234,1,0.0000,-0.0020,-0.0032,0.0956,-0.0152,0,1.0000,0,0,-8.5421,25.3098,135.6785,35.9601,176.0410,0.000,0.000,0.672,0.0000,0.0000,0.0000,0.0000,0.0000,0.0000,0
2026-04-17,08:25:34,6277,1,0.0000,0.0012,-0.0039,0.1135,-0.0152,0,1.0000,0,0,-7.8616,17.8215,135.6688,11.0309,176.1608,0.000,0.000,0.668,0.0000,0.0000,0.0000,0.0000,0.0000,0.0000,0
2026-04-17,08:25:34,6320,1,0.0000,0.0028,-0.0043,0.1274,-0.0152,0,1.0000,0,0,-7.5792,13.8325,136.4446,21.4527,156.8012,0.000,0.000,0.665,0.0000,0.0000,0.0000,0.0000,0.0000,0.0000,0
2026-04-17,08:25:34,6353,1,0.0000,-0.0006,-0.0034,0.0991,-0.0152,0,1.0000,0,0,-7.0464,19.8411,138.8527,48.3713,146.3893,0.000,0.000,0.662,0.0000,0.0000,0.0000,0.0000,0.0000,0.0000,0
2026-04-17,08:25:34,6396,1,0.0000,-0.0291,-0.0033,0.0956,-0.0152,0,1.0000,0,0,-6.0907,24.7968,141.2442,52.6933,137.7711,0.000,0.000,0.658,0.0000,0.0000,0.0000,0.0000,0.0000,0.0000,0
2026-04-17,08:25:34,6429,1,0.0000,-0.0170,-0.0047,0.1382,-0.0152,0,1.0000,0,0,-5.3776,24.4294,142.6254,46.3699,142.0804,0.000,0.000,0.655,0.0000,0.0000,0.0000,0.0000,0.0000,0.0000,0
2026-04-17,08:25:34,6472,1,0.0000,0.0051,-0.0045,0.1311,-0.0152,0,1.0000,0,0,-4.2101,30.0466,143.3976,27.7111,146.9750,0.000,0.000,0.651,0.0000,0.0000,0.0000,0.0000,0.0000,0.0000,0
2026-04-17,08:25:34,6514,1,0.0000,-0.0055,-0.0031,0.0921,-0.0152,0,1.0000,0,0,-3.1859,24.5034,144.0600,20.8935,151.2122,0.000,0.000,0.647,0.0000,0.0000,0.0000,0.0000,0.0000,0.0000,0
2026-04-17,08:25:34,6547,1,0.0000,-0.0002,-0.0041,0.1205,-0.0152,0,1.0000,0,0,-2.5943,19.5605,144.5143,18.1922,154.2560,0.000,0.000,0.644,0.0000,0.0000,0.0000,0.0000,0.0000,0.0000,0
2026-04-17,08:25:34,6590,1,0.0000,0.0053,-0.0030,0.0886,-0.0152,0,1.0000,0,0,-1.8492,17.8184,144.9172,13.4756,158.0886,0.000,0.000,0.640,0.0000,0.0000,0.0000,0.0000,0.0000,0.0000,0
2026-04-17,08:25:34,6623,1,0.0000,-0.0067,-0.0036,0.1065,-0.0152,0,1.0000,0,0,-1.6064,6.8145,144.8946,6.2496,146.6569,0.000,0.000,0.637,0.0000,0.0000,0.0000,0.0000,0.0000,0.0000,0
2026-04-17,08:25:34,6666,1,0.0000,0.0019,-0.0043,0.1276,-0.0152,0,1.0000,0,0,-2.2188,-14.8124,145.3856,12.0446,98.7777,0.000,0.000,0.633,0.0000,0.0000,0.0000,0.0000,0.0000,0.0000,0
2026-04-17,08:25:34,6709,1,0.0000,0.0070,-0.0040,0.1170,-0.0152,0,1.0000,0,0,-2.5918,-6.6445,146.1029,16.5556,58.1807,0.000,0.000,0.629,0.0000,0.0000,0.0000,0.0000,0.0000,0.0000,0
2026-04-17,08:25:34,6752,1,0.0000,0.0072,-0.0051,0.1488,-0.0152,0,1.0000,0,0,-2.3397,8.5764,147.4939,27.9292,24.6249,0.000,0.000,0.625,0.0000,0.0000,0.0000,0.0000,0.0000,0.0000,0
2026-04-17,08:25:34,6795,1,0.0000,0.0066,-0.0040,0.1170,-0.0152,0,1.0000,0,0,-1.5408,19.6352,148.5780,25.3522,-4.3500,0.000,0.000,0.621,0.0000,0.0000,0.0000,0.0000,0.0000,0.0000,0
2026-04-17,08:25:34,6828,1,0.0000,0.0121,-0.0037,0.1098,-0.0152,0,1.0000,0,0,-0.9461,18.5196,148.4462,9.0889,-9.6824,0.000,0.000,0.618,0.0000,0.0000,0.0000,0.0000,0.0000,0.0000,0
2026-04-17,08:25:34,6861,1,0.0000,-0.0064,-0.0041,0.1205,-0.0152,0,1.0000,0,0,-0.5537,11.9056,147.4337,-12.0370,12.1623,0.000,0.000,0.615,0.0000,0.0000,0.0000,0.0000,0.0000,0.0000,0
2026-04-17,08:25:34,6903,1,0.0000,0.0016,-0.0036,0.1064,-0.0152,0,1.0000,0,0,-0.4408,2.2578,145.7006,-29.1166,37.5085,0.000,0.000,0.611,0.0000,0.0000,0.0000,0.0000,0.0000,0.0000,0
2026-04-17,08:25:34,6946,1,0.0000,-0.0034,-0.0045,0.1312,-0.0152,0,1.0000,0,0,-0.8074,-13.5805,146.2092,6.4963,14.1891,0.000,0.000,0.607,0.0000,0.0000,0.0000,0.0000,0.0000,0.0000,0
2026-04-17,08:25:34,6989,1,0.0000,0.0029,-0.0041,0.1205,-0.0152,0,1.0000,0,0,-1.8399,-22.8080,149.1787,48.1798,-12.5036,0.000,0.000,0.603,0.0000,0.0000,0.0000,0.0000,0.0000,0.0000,0
2026-04-17,08:25:34,7032,1,0.0000,-0.0086,-0.0030,0.0885,-0.0152,0,1.0000,0,0,-2.1527,-3.8803,151.4641,47.9792,-35.8103,0.000,0.000,0.599,0.0000,0.0000,0.0000,0.0000,0.0000,0.0000,0
2026-04-17,08:25:34,7074,1,0.0000,0.0028,-0.0033,0.0957,-0.0152,0,1.0000,0,0,-1.8020,10.3006,151.3463,13.4854,-55.8217,0.000,0.000,0.595,0.0000,0.0000,0.0000,0.0000,0.0000,0.0000,0
2026-04-17,08:25:34,7116,1,0.0000,-0.0010,-0.0037,0.1098,-0.0152,0,1.0000,0,0,-1.3184,10.3766,150.1011,-14.0964,-73.5144,0.000,0.000,0.591,0.0000,0.0000,0.0000,0.0000,0.0000,0.0000,0
2026-04-17,08:25:34,7159,1,0.0000,0.0075,-0.0040,0.1170,-0.0152,0,1.0000,0,0,-1.5112,-3.7804,149.8240,-6.6653,-88.7143,0.000,0.000,0.587,0.0000,0.0000,0.0000,0.0000,0.0000,0.0000,0
2026-04-17,08:25:34,7193,1,0.0000,-0.0026,-0.0037,0.1098,-0.0152,0,1.0000,0,0,-2.0920,-9.6861,150.5708,-0.1957,-92.3750,0.000,0.000,0.585,0.0000,0.0000,0.0000,0.0000,0.0000,0.0000,0
2026-04-17,08:25:35,7237,1,0.0000,0.0100,-0.0054,0.1594,-0.0152,0,1.0000,0,0,-2.2870,0.2243,151.7162,14.9529,-91.1487,0.000,0.000,0.581,0.0000,0.0000,0.0000,0.0000,0.0000,0.0000,0
2026-04-17,08:25:35,7280,1,0.0000,-0.0047,-0.0042,0.1241,-0.0152,0,1.0000,0,0,-1.6878,14.6733,151.4004,-0.7327,-85.0370,0.000,0.000,0.577,0.0000,0.0000,0.0000,0.0000,0.0000,0.0000,0
2026-04-17,08:25:35,7322,1,0.0000,-0.0081,-0.0035,0.1029,-0.0152,0,1.0000,0,0,-0.1257,44.0102,150.7348,-12.9481,-85.3697,0.000,0.000,0.573,0.0000,0.0000,0.0000,0.0000,0.0000,0.0000,0
2026-04-17,08:25:35,7366,1,0.0000,-0.0047,-0.0033,0.0956,-0.0152,0,1.0000,0,0,1.1556,24.9422,148.8720,-32.9128,-99.4476,0.000,0.000,0.569,0.0000,0.0000,0.0000,0.0000,0.0000,0.0000,0
2026-04-17,08:25:35,7409,1,0.0000,-0.0102,-0.0033,0.0957,-0.0152,0,1.0000,0,0,0.9466,-8.3544,146.8403,-41.8578,-111.5730,0.000,0.000,0.565,0.0000,0.0000,0.0000,0.0000,0.0000,0.0000,0
2026-04-17,08:25:35,7442,1,0.0000,-0.0053,-0.0035,0.1027,-0.0152,0,1.0000,0,0,0.5047,-12.0303,145.5291,-40.8937,-119.3889,0.000,0.000,0.562,0.0000,0.0000,0.0000,0.0000,0.0000,0.0000,0
2026-04-17,08:25:35,7484,1,0.0000,0.0080,-0.0037,0.1100,-0.0152,0,1.0000,0,0,0.5189,3.3079,143.4713,-47.1768,-121.7852,0.000,0.000,0.558,0.0000,0.0000,0.0000,0.0000,0.0000,0.0000,0
2026-04-17,08:25:35,7526,1,0.0000,-0.0082,-0.0032,0.0956,-0.0152,0,1.0000,0,0,1.1743,16.7656,140.8610,-56.6791,-78.1512,0.000,0.000,0.554,0.0000,0.0000,0.0000,0.0000,0.0000,0.0000,0
2026-04-17,08:25:35,7569,1,0.0000,-0.0070,-0.0033,0.0957,-0.0152,0,1.0000,0,0,2.1794,27.5057,137.5732,-69.7526,-40.9328,0.000,0.000,0.550,0.0000,0.0000,0.0000,0.0000,0.0000,0.0000,0
2026-04-17,08:25:35,7612,1,0.0000,-0.0067,-0.0029,0.0849,-0.0152,0,1.0000,0,0,2.2520,-5.0021,133.8889,-78.3307,-36.0486,0.000,0.000,0.546,0.0000,0.0000,0.0000,0.0000,0.0000,0.0000,0
2026-04-17,08:25:35,7645,1,0.0000,-0.0027,-0.0032,0.0956,-0.0152,0,1.0000,0,0,1.1258,-30.0031,131.8593,-68.1193,-51.8882,0.000,0.000,0.543,0.0000,0.0000,0.0000,0.0000,0.0000,0.0000,0
2026-04-17,08:25:35,7688,1,0.0000,-0.0057,-0.0025,0.0745,-0.0152,0,1.0000,0,0,0.5941,-6.7188,129.8475,-54.0793,-63.2535,0.000,0.000,0.539,0.0000,0.0000,0.0000,0.0000,0.0000,0.0000,0
2026-04-17,08:25:35,7731,1,0.0000,0.0052,-0.0041,0.1204,-0.0152,0,1.0000,0,0,0.3519,-8.2600,127.2282,-59.8306,-34.1720,0.000,0.000,0.535,0.0000,0.0000,0.0000,0.0000,0.0000,0.0000,0
2026-04-17,08:25:35,7774,1,0.0000,-0.0039,-0.0039,0.1133,-0.0152,0,1.0000,0,0,-1.0918,-26.5930,124.4588,-61.8341,-54.5987,0.000,0.000,0.531,0.0000,0.0000,0.0000,0.0000,0.0000,0.0000,0
2026-04-17,08:25:35,7817,1,0.0000,0.0001,-0.0048,0.1417,-0.0152,0,1.0000,0,0,-1.6235,-2.6815,122.2717,-56.8262,-72.6166,0.000,0.000,0.527,0.0000,0.0000,0.0000,0.0000,0.0000,0.0000,0
2026-04-17,08:25:35,7850,1,0.0000,-0.0017,-0.0028,0.0815,-0.0152,0,1.0000,0,0,-1.3276,11.5358,119.8089,-67.9570,-84.5833,0.000,0.000,0.524,0.0000,0.0000,0.0000,0.0000,0.0000,0.0000,0
2026-04-17,08:25:35,7893,1,0.0000,-0.0012,-0.0051,0.1487,-0.0152,0,1.0000,0,0,0.3435,48.5538,116.2273,-79.0122,-98.0411,0.000,0.000,0.520,0.0000,0.0000,0.0000,0.0000,0.0000,0.0000,0
2026-04-17,08:25:35,7935,1,0.0000,-0.0015,-0.0041,0.1205,-0.0152,0,1.0000,0,0,3.3656,76.7733,113.4735,-71.9033,-109.8294,0.000,0.000,0.516,0.0000,0.0000,0.0000,0.0000,0.0000,0.0000,0
2026-04-17,08:25:35,7970,1,0.0000,0.0004,-0.0039,0.1135,-0.0152,0,1.0000,0,0,5.5683,66.7059,111.6445,-62.1518,-118.6633,0.000,0.000,0.513,0.0000,0.0000,0.0000,0.0000,0.0000,0.0000,0
2026-04-17,08:25:35,8003,1,0.0000,-0.0158,-0.0033,0.0957,-0.0152,0,1.0000,0,0,7.1982,54.3741,110.0758,-56.3594,-125.7097,0.000,0.000,0.510,0.0000,0.0000,0.0000,0.0000,0.0000,0.0000,0
2026-04-17,08:25:35,8046,1,0.0000,-0.0038,-0.0030,0.0886,-0.0152,0,1.0000,0,0,9.0646,46.4823,108.0578,-51.7755,-133.8561,0.000,0.000,0.506,0.0000,0.0000,0.0000,0.0000,0.0000,0.0000,0
2026-04-17,08:25:35,8089,1,0.0000,-0.0087,-0.0049,0.1453,-0.0152,0,1.0000,0,0,10.7849,45.6177,107.0292,-42.8589,-130.9245,0.000,0.000,0.503,0.0000,0.0000,0.0000,0.0000,0.0000,0.0000,0
2026-04-17,08:25:35,8132,1,0.0000,-0.0130,-0.0025,0.0745,-0.0152,0,1.0000,0,0,12.5094,37.9113,105.6721,-35.9655,-138.1498,0.000,0.000,0.499,0.0000,0.0000,0.0000,0.0000,0.0000,0.0000,0
2026-04-17,08:25:35,8175,1,0.0000,0.0037,-0.0032,0.0955,-0.0152,0,1.0000,0,0,13.8266,31.9420,105.0410,-21.9576,-144.2445,0.000,0.000,0.495,0.0000,0.0000,0.0000,0.0000,0.0000,0.0000,0
2026-04-17,08:25:36,8217,1,0.0000,0.0093,-0.0041,0.1205,-0.0152,0,1.0000,0,0,15.1324,29.5111,105.0186,-7.8895,-149.3560,0.000,0.000,0.491,0.0000,0.0000,0.0000,0.0000,0.0000,0.0000,0
2026-04-17,08:25:36,8261,1,0.0000,0.0100,-0.0036,0.1062,-0.0152,0,1.0000,0,0,16.5947,32.3287,105.1927,0.1197,-153.8141,0.000,0.000,0.487,0.0000,0.0000,0.0000,0.0000,0.0000,0.0000,0
2026-04-17,08:25:36,8303,1,0.0000,-0.0123,-0.0037,0.1098,-0.0152,0,1.0000,0,0,17.6910,20.9379,105.9188,12.7558,-157.7448,0.000,0.000,0.483,0.0000,0.0000,0.0000,0.0000,0.0000,0.0000,0
2026-04-17,08:25:36,8346,1,0.0000,0.0099,-0.0046,0.1348,-0.0152,0,1.0000,0,0,17.0256,-34.7573,107.2721,26.0696,-154.2026,0.000,0.000,0.479,0.0000,0.0000,0.0000,0.0000,0.0000,0.0000,0
2026-04-17,08:25:36,8389,1,0.0000,-0.0033,-0.0036,0.1063,-0.0152,0,1.0000,0,0,15.1934,-40.5211,109.0559,37.1159,-137.2345,0.000,0.000,0.475,0.0000,0.0000,0.0000,0.0000,0.0000,0.0000,0
2026-04-17,08:25:36,8432,1,0.0000,-0.0119,-0.0033,0.0956,-0.0152,0,1.0000,0,0,13.8325,-36.0420,110.5961,36.8376,-90.3914,0.000,0.000,0.471,0.0000,0.0000,0.0000,0.0000,0.0000,0.0000,0
2026-04-17,08:25:36,8465,1,0.0000,-0.0012,-0.0030,0.0884,-0.0152,0,1.0000,0,0,12.8458,-32.4795,111.5498,32.7680,-66.6648,0.000,0.000,0.468,0.0000,0.0000,0.0000,0.0000,0.0000,0.0000,0
2026-04-17,08:25:36,8507,1,0.0000,-0.0073,-0.0046,0.1347,-0.0152,0,1.0000,0,0,11.7746,-27.6251,112.1111,19.7503,-30.9003,0.000,0.000,0.464,0.0000,0.0000,0.0000,0.0000,0.0000,0.0000,0
2026-04-17,08:25:36,8550,1,0.0000,0.0107,-0.0037,0.1101,-0.0152,0,1.0000,0,0,10.4178,-36.6413,112.0961,8.1049,-0.4027,0.000,0.000,0.460,0.0000,0.0000,0.0000,0.0000,0.0000,0.0000,0
2026-04-17,08:25:36,8593,1,0.0000,0.0087,-0.0040,0.1170,-0.0152,0,1.0000,0,0,8.9872,-34.7862,112.7013,14.2669,25.7372,0.000,0.000,0.456,0.0000,0.0000,0.0000,0.0000,0.0000,0.0000,0
2026-04-17,08:25:36,8636,1,0.0000,0.0199,-0.0037,0.1098,-0.0152,0,1.0000,0,0,8.1215,-20.8432,113.6219,18.8849,47.7573,0.000,0.000,0.452,0.0000,0.0000,0.0000,0.0000,0.0000,0.0000,0
2026-04-17,08:25:36,8669,1,0.0000,-0.0014,-0.0031,0.0921,-0.0152,0,1.0000,0,0,7.7437,-13.2736,113.7635,10.9916,62.0996,0.000,0.000,0.449,0.0000,0.0000,0.0000,0.0000,0.0000,0.0000,0
2026-04-17,08:25:36,8711,1,0.0000,0.0185,-0.0034,0.0990,-0.0152,0,1.0000,0,0,7.2832,-12.6721,113.5427,0.5159,78.9429,0.000,0.000,0.445,0.0000,0.0000,0.0000,0.0000,0.0000,0.0000,0
2026-04-17,08:25:36,8754,1,0.0000,0.0011,-0.0032,0.0956,-0.0152,0,1.0000,0,0,6.9361,-9.0070,113.0046,-7.3574,93.5700,0.000,0.000,0.441,0.0000,0.0000,0.0000,0.0000,0.0000,0.0000,0
2026-04-17,08:25:36,8796,1,0.0000,0.0048,-0.0033,0.0957,-0.0152,0,1.0000,0,0,6.6141,-9.4784,112.6097,-7.9418,106.3218,0.000,0.000,0.437,0.0000,0.0000,0.0000,0.0000,0.0000,0.0000,0
2026-04-17,08:25:36,8839,1,0.0000,-0.0048,-0.0029,0.0851,-0.0152,0,1.0000,0,0,6.2133,-10.6333,112.2841,-7.1443,117.1311,0.000,0.000,0.433,0.0000,0.0000,0.0000,0.0000,0.0000,0.0000,0
2026-04-17,08:25:36,8881,1,0.0000,-0.0079,-0.0042,0.1240,-0.0152,0,1.0000,0,0,5.7091,-13.6204,111.9743,-6.8016,126.2216,0.000,0.000,0.429,0.0000,0.0000,0.0000,0.0000,0.0000,0.0000,0
2026-04-17,08:25:36,8924,1,0.0000,0.0021,-0.0034,0.0992,-0.0152,0,1.0000,0,0,5.1638,-14.1458,111.7533,-4.8914,134.0544,0.000,0.000,0.425,0.0000,0.0000,0.0000,0.0000,0.0000,0.0000,0
2026-04-17,08:25:36,8966,1,0.0000,-0.0003,-0.0039,0.1135,-0.0152,0,1.0000,0,0,4.7579,-11.1227,111.6258,-3.1987,140.6365,0.000,0.000,0.421,0.0000,0.0000,0.0000,0.0000,0.0000,0.0000,0
2026-04-17,08:25:36,9010,1,0.0000,-0.0041,-0.0027,0.0780,-0.0152,0,1.0000,0,0,4.6135,-6.9652,111.2965,-3.8412,143.2944,0.000,0.000,0.418,0.0000,0.0000,0.0000,0.0000,0.0000,0.0000,0
2026-04-17,08:25:36,9052,1,0.0000,0.0087,-0.0041,0.1204,-0.0152,0,1.0000,0,0,4.8209,7.5984,111.5697,4.1788,148.1354,0.000,0.000,0.414,0.0000,0.0000,0.0000,0.0000,0.0000,0.0000,0
2026-04-17,08:25:36,9093,1,0.0000,0.0111,-0.0037,0.1101,-0.0152,0,1.0000,0,0,4.4197,-15.7522,112.1210,9.1884,152.3786,0.000,0.000,0.410,0.0000,0.0000,0.0000,0.0000,0.0000,0.0000,0
2026-04-17,08:25:36,9126,1,0.0000,-0.0063,-0.0039,0.1135,-0.0152,0,1.0000,0,0,2.9923,-43.5543,112.1138,4.4733,127.7480,0.000,0.000,0.407,0.0000,0.0000,0.0000,0.0000,0.0000,0.0000,0
2026-04-17,08:25:36,9168,1,0.0000,0.0111,-0.0040,0.1170,-0.0152,0,1.0000,0,0,0.7018,-47.7040,112.6114,9.4283,96.0485,0.000,0.000,0.403,0.0000,0.0000,0.0000,0.0000,0.0000,0.0000,0
2026-04-17,08:25:36,9202,1,0.0000,-0.0109,-0.0043,0.1276,-0.0152,0,1.0000,0,0,-0.6280,-41.4058,113.3980,16.2499,92.6262,0.000,0.000,0.400,0.0000,0.0000,0.0000,0.0000,0.0000,0.0000,0
2026-04-17,08:25:37,9245,1,0.0000,0.0067,-0.0046,0.1345,-0.0152,0,1.0000,0,0,-2.3462,-26.4029,113.6139,4.7686,105.5059,0.000,0.000,0.396,0.0000,0.0000,0.0000,0.0000,0.0000,0.0000,0
2026-04-17,08:25:37,9288,1,0.0000,0.0019,-0.0031,0.0923,-0.0152,0,1.0000,0,0,-1.5288,31.3994,111.9984,-25.6512,116.2456,0.000,0.000,0.392,0.0000,0.0000,0.0000,0.0000,0.0000,0.0000,0
2026-04-17,08:25:37,9331,1,0.0000,0.0060,-0.0045,0.1311,-0.0152,0,1.0000,0,0,2.1617,86.6837,109.9962,-41.1316,112.5349,0.000,0.000,0.388,0.0000,0.0000,0.0000,0.0000,0.0000,0.0000,0
2026-04-17,08:25:37,9373,1,0.0000,0.0069,-0.0029,0.0851,-0.0152,0,1.0000,0,0,4.0859,44.2618,107.7021,-50.3110,121.7794,0.000,0.000,0.384,0.0000,0.0000,0.0000,0.0000,0.0000,0.0000,0
2026-04-17,08:25:37,9416,1,0.0000,-0.0037,-0.0042,0.1240,-0.0152,0,1.0000,0,0,4.7861,17.6911,106.4158,-35.5115,76.6460,0.000,0.000,0.380,0.0000,0.0000,0.0000,0.0000,0.0000,0.0000,0
2026-04-17,08:25:37,9459,1,0.0000,0.0033,-0.0039,0.1135,-0.0152,0,1.0000,0,0,5.2861,14.3095,106.4410,-12.6538,79.2508,0.000,0.000,0.376,0.0000,0.0000,0.0000,0.0000,0.0000,0.0000,0
2026-04-17,08:25:37,9492,1,0.0000,0.0083,-0.0041,0.1204,-0.0152,0,1.0000,0,0,5.9721,21.1621,106.7747,-0.6779,90.5068,0.000,0.000,0.373,0.0000,0.0000,0.0000,0.0000,0.0000,0.0000,0
2026-04-17,08:25:37,9534,1,0.0000,-0.0052,-0.0034,0.0992,-0.0152,0,1.0000,0,0,6.7475,19.4619,107.0212,2.3540,103.0967,0.000,0.000,0.369,0.0000,0.0000,0.0000,0.0000,0.0000,0.0000,0
2026-04-17,08:25:37,9577,1,0.0000,0.0203,-0.0031,0.0920,-0.0152,0,1.0000,0,0,7.6564,24.0938,106.5860,-6.9161,113.9520,0.000,0.000,0.365,0.0000,0.0000,0.0000,0.0000,0.0000,0.0000,0
2026-04-17,08:25:37,9620,1,0.0000,-0.0055,-0.0037,0.1097,-0.0152,0,1.0000,0,0,9.7325,49.6917,106.3602,-5.2170,102.4927,0.000,0.000,0.361,0.0000,0.0000,0.0000,0.0000,0.0000,0.0000,0
2026-04-17,08:25:37,9663,1,0.0000,0.0028,-0.0047,0.1380,-0.0152,0,1.0000,0,0,12.3903,57.4692,107.1734,11.3515,94.6174,0.000,0.000,0.357,0.0000,0.0000,0.0000,0.0000,0.0000,0.0000,0
2026-04-17,08:25:37,9705,1,0.0000,-0.0137,-0.0039,0.1134,-0.0152,0,1.0000,0,0,11.4258,-51.2931,107.5325,7.1623,99.8350,0.000,0.000,0.353,0.0000,0.0000,0.0000,0.0000,0.0000,0.0000,0
2026-04-17,08:25:37,9746,1,0.0000,0.0112,-0.0040,0.1170,-0.0152,0,1.0000,0,0,10.1984,-31.0578,107.2190,-1.4331,110.5194,0.000,0.000,0.349,0.0000,0.0000,0.0000,0.0000,0.0000,0.0000,0
2026-04-17,08:25:37,9788,1,0.0000,0.0155,-0.0034,0.0992,-0.0152,0,1.0000,0,0,8.2363,-39.1918,106.7527,-4.8708,119.4351,0.000,0.000,0.345,0.0000,0.0000,0.0000,0.0000,0.0000,0.0000,0
2026-04-17,08:25:37,9821,1,0.0000,-0.0128,-0.0047,0.1382,-0.0152,0,1.0000,0,0,7.4626,-29.6697,106.8342,1.4044,125.1215,0.000,0.000,0.342,0.0000,0.0000,0.0000,0.0000,0.0000,0.0000,0
2026-04-17,08:25:37,9864,1,0.0000,0.0016,-0.0028,0.0815,-0.0152,0,1.0000,0,0,6.5229,-25.1123,107.8477,18.9251,118.9428,0.000,0.000,0.338,0.0000,0.0000,0.0000,0.0000,0.0000,0.0000,0
2026-04-17,08:25:37,9897,1,0.0000,0.0047,-0.0034,0.0992,-0.0152,0,1.0000,0,0,6.2748,-17.4193,108.4346,18.7163,121.3527,0.000,0.000,0.336,0.0000,0.0000,0.0000,0.0000,0.0000,0.0000,0
2026-04-17,08:25:37,9930,1,0.0000,-0.0042,-0.0049,0.1453,-0.0152,0,1.0000,0,0,5.6904,-19.1738,108.9490,17.2810,127.4616,0.000,0.000,0.333,0.0000,0.0000,0.0000,0.0000,0.0000,0.0000,0
2026-04-17,08:25:37,9973,1,0.0000,-0.0062,-0.0039,0.1135,-0.0152,0,1.0000,0,0,4.8543,-20.9940,109.6084,18.1724,134.7839,0.000,0.000,0.329,0.0000,0.0000,0.0000,0.0000,0.0000,0.0000,0
2026-04-17,08:25:37,10006,1,0.0000,-0.0004,-0.0036,0.1063,-0.0152,0,1.0000,0,0,4.3648,-17.1660,110.1549,17.2199,139.5059,0.000,0.000,0.326,0.0000,0.0000,0.0000,0.0000,0.0000,0.0000,0
2026-04-17,08:25:37,10039,1,0.0000,0.0166,-0.0028,0.0812,-0.0152,0,1.0000,0,0,3.7374,-20.7371,110.5384,14.8704,143.9313,0.000,0.000,0.323,0.0000,0.0000,0.0000,0.0000,0.0000,0.0000,0
2026-04-17,08:25:37,10082,1,0.0000,-0.0084,-0.0035,0.1027,-0.0152,0,1.0000,0,0,3.1694,-14.2209,111.2032,15.1071,149.1106,0.000,0.000,0.319,0.0000,0.0000,0.0000,0.0000,0.0000,0.0000,0
2026-04-17,08:25:37,10115,1,0.0000,-0.0014,-0.0040,0.1170,-0.0152,0,1.0000,0,0,2.6575,-16.2990,111.6496,14.3003,152.5451,0.000,0.000,0.316,0.0000,0.0000,0.0000,0.0000,0.0000,0.0000,0
2026-04-17,08:25:37,10158,1,0.0000,-0.0064,-0.0043,0.1276,-0.0152,0,1.0000,0,0,2.1011,-13.8119,112.3141,15.0894,156.4268,0.000,0.000,0.312,0.0000,0.0000,0.0000,0.0000,0.0000,0.0000,0
2026-04-17,08:25:37,10201,1,0.0000,0.0040,-0.0041,0.1205,-0.0152,0,1.0000,0,0,1.3815,-17.5549,113.0950,16.7371,159.6325,0.000,0.000,0.308,0.0000,0.0000,0.0000,0.0000,0.0000,0.0000,0
2026-04-17,08:25:38,10243,1,0.0000,-0.0107,-0.0034,0.0991,-0.0152,0,1.0000,0,0,0.8676,-11.2445,113.9022,17.9005,162.3371,0.000,0.000,0.304,0.0000,0.0000,0.0000,0.0000,0.0000,0.0000,0
2026-04-17,08:25:38,10286,1,0.0000,-0.0107,-0.0042,0.1239,-0.0152,0,1.0000,0,0,0.3933,-11.4894,114.9703,21.7299,164.3488,0.000,0.000,0.300,0.0000,0.0000,0.0000,0.0000,0.0000,0.0000,0
2026-04-17,08:25:38,10319,1,0.0000,0.0031,-0.0036,0.1062,-0.0152,0,1.0000,0,0,0.1309,-7.2911,115.8942,24.2429,165.6176,0.000,0.000,0.297,0.0000,0.0000,0.0000,0.0000,0.0000,0.0000,0
2026-04-17,08:25:38,10362,1,0.0000,-0.0042,-0.0040,0.1171,-0.0152,0,1.0000,0,0,0.0024,-2.3229,116.8500,20.9870,166.7092,0.000,0.000,0.293,0.0000,0.0000,0.0000,0.0000,0.0000,0.0000,0
2026-04-17,08:25:38,10405,1,0.0000,0.0058,-0.0049,0.1451,-0.0152,0,1.0000,0,0,-0.0822,-0.3139,117.2265,11.2629,167.4083,0.000,0.000,0.289,0.0000,0.0000,0.0000,0.0000,0.0000,0.0000,0
2026-04-17,08:25:38,10438,1,0.0000,-0.0054,-0.0036,0.1062,-0.0152,0,1.0000,0,0,0.0522,3.8617,117.2708,5.2948,167.8989,0.000,0.000,0.286,0.0000,0.0000,0.0000,0.0000,0.0000,0.0000,0
2026-04-17,08:25:38,10481,1,0.0000,-0.0073,-0.0034,0.0991,-0.0152,0,1.0000,0,0,0.4137,10.7758,117.1139,-1.5531,168.4957,0.000,0.000,0.282,0.0000,0.0000,0.0000,0.0000,0.0000,0.0000,0
2026-04-17,08:25:38,10514,1,0.0000,0.0114,-0.0043,0.1276,-0.0152,0,1.0000,0,0,0.9503,14.5176,116.7591,-7.2111,168.6144,0.000,0.000,0.279,0.0000,0.0000,0.0000,0.0000,0.0000,0.0000,0
2026-04-17,08:25:38,10557,1,0.0000,-0.0187,-0.0042,0.1241,-0.0152,0,1.0000,0,0,1.3129,9.5750,115.5740,-20.9081,169.0336,0.000,0.000,0.275,0.0000,0.0000,0.0000,0.0000,0.0000,0.0000,0
2026-04-17,08:25:38,10599,1,0.0000,0.0086,-0.0036,0.1061,-0.0152,0,1.0000,0,0,1.5436,2.0149,114.6485,-19.8586,170.0645,0.000,0.000,0.271,0.0000,0.0000,0.0000,0.0000,0.0000,0.0000,0
2026-04-17,08:25:38,10642,1,0.0000,-0.0040,-0.0041,0.1206,-0.0152,0,1.0000,0,0,1.3014,-3.8103,114.9195,-1.0959,171.2931,0.000,0.000,0.267,0.0000,0.0000,0.0000,0.0000,0.0000,0.0000,0
2026-04-17,08:25:38,10685,1,0.0000,0.0112,-0.0059,0.1737,-0.0152,0,1.0000,0,0,1.3896,2.2000,115.5869,9.0800,171.8333,0.000,0.000,0.263,0.0000,0.0000,0.0000,0.0000,0.0000,0.0000,0
2026-04-17,08:25:38,10727,1,0.0000,-0.0102,-0.0035,0.1027,-0.0152,0,1.0000,0,0,1.4705,0.8905,115.7832,6.0215,172.3680,0.000,0.000,0.259,0.0000,0.0000,0.0000,0.0000,0.0000,0.0000,0
2026-04-17,08:25:38,10764,1,0.0000,0.0106,-0.0045,0.1313,-0.0152,0,1.0000,0,0,1.4066,-0.3752,116.0310,6.3251,172.5999,0.000,0.000,0.257,0.0000,0.0000,0.0000,0.0000,0.0000,0.0000,0
2026-04-17,08:25:38,10806,1,0.0000,-0.0012,-0.0039,0.1135,-0.0152,0,1.0000,0,0,1.2569,-3.3227,116.4583,8.7071,173.2888,0.000,0.000,0.253,0.0000,0.0000,0.0000,0.0000,0.0000,0.0000,0
2026-04-17,08:25:38,10849,1,0.0000,0.0001,-0.0040,0.1170,-0.0152,0,1.0000,0,0,1.1804,-1.6001,116.8284,7.7316,173.6543,0.000,0.000,0.249,0.0000,0.0000,0.0000,0.0000,0.0000,0.0000,0
2026-04-17,08:25:38,10892,1,0.0000,-0.0010,-0.0032,0.0956,-0.0152,0,1.0000,0,0,0.9913,-4.0467,117.1236,7.2012,174.0377,0.000,0.000,0.245,0.0000,0.0000,0.0000,0.0000,0.0000,0.0000,0
2026-04-17,08:25:38,10934,1,0.0000,0.0013,-0.0037,0.1100,-0.0152,0,1.0000,0,0,0.9361,0.7707,117.7340,11.8538,174.2787,0.000,0.000,0.241,0.0000,0.0000,0.0000,0.0000,0.0000,0.0000,0
2026-04-17,08:25:38,10976,1,0.0000,0.0114,-0.0043,0.1276,-0.0152,0,1.0000,0,0,0.9854,0.9355,117.9653,6.4261,174.1066,0.000,0.000,0.237,0.0000,0.0000,0.0000,0.0000,0.0000,0.0000,0
2026-04-17,08:25:38,11019,1,0.0000,-0.0006,-0.0034,0.0990,-0.0152,0,1.0000,0,0,1.0713,2.8699,118.1713,5.4783,174.2740,0.000,0.000,0.233,0.0000,0.0000,0.0000,0.0000,0.0000,0.0000,0
2026-04-17,08:25:38,11052,1,0.0000,0.0091,-0.0040,0.1170,-0.0152,0,1.0000,0,0,1.1032,1.7761,118.2560,3.2240,174.2956,0.000,0.000,0.230,0.0000,0.0000,0.0000,0.0000,0.0000,0.0000,0
2026-04-17,08:25:38,11093,1,0.0000,0.0041,-0.0035,0.1029,-0.0152,0,1.0000,0,0,1.2171,5.3922,118.5147,5.3533,174.5640,0.000,0.000,0.226,0.0000,0.0000,0.0000,0.0000,0.0000,0.0000,0
2026-04-17,08:25:38,11126,1,0.0000,-0.0024,-0.0048,0.1418,-0.0152,0,1.0000,0,0,1.8591,16.2534,118.4214,-0.1854,173.9883,0.000,0.000,0.223,0.0000,0.0000,0.0000,0.0000,0.0000,0.0000,0
2026-04-17,08:25:38,11169,1,0.0000,-0.0006,-0.0036,0.1062,-0.0152,0,1.0000,0,0,2.0221,0.9529,117.5933,-12.5286,173.8064,0.000,0.000,0.219,0.0000,0.0000,0.0000,0.0000,0.0000,0.0000,0
2026-04-17,08:25:38,11211,1,0.0000,0.0121,-0.0043,0.1274,-0.0152,0,1.0000,0,0,2.0203,2.5664,117.2404,-8.8237,174.0224,0.000,0.000,0.215,0.0000,0.0000,0.0000,0.0000,0.0000,0.0000,0
2026-04-17,08:25:39,11253,1,0.0000,-0.0075,-0.0039,0.1133,-0.0152,0,1.0000,0,0,2.1557,1.1165,117.3853,-0.5632,174.1070,0.000,0.000,0.211,0.0000,0.0000,0.0000,0.0000,0.0000,0.0000,0
2026-04-17,08:25:39,11296,1,0.0000,0.0010,-0.0042,0.1239,-0.0152,0,1.0000,0,0,1.9590,-3.5856,117.4113,0.4463,174.1166,0.000,0.000,0.207,0.0000,0.0000,0.0000,0.0000,0.0000,0.0000,0
2026-04-17,08:25:39,11338,1,0.0000,0.0119,-0.0041,0.1204,-0.0152,0,1.0000,0,0,1.9631,1.1196,117.5992,2.8364,174.1735,0.000,0.000,0.203,0.0000,0.0000,0.0000,0.0000,0.0000,0.0000,0
2026-04-17,08:25:39,11381,1,0.0000,-0.0056,-0.0039,0.1135,-0.0152,0,1.0000,0,0,2.1971,6.4268,117.4688,-1.4343,174.3037,0.000,0.000,0.199,0.0000,0.0000,0.0000,0.0000,0.0000,0.0000,0
2026-04-17,08:25:39,11424,1,0.0000,-0.0009,-0.0039,0.1135,-0.0152,0,1.0000,0,0,2.3167,4.9097,117.3518,-1.9807,174.2794,0.000,0.000,0.195,0.0000,0.0000,0.0000,0.0000,0.0000,0.0000,0
2026-04-17,08:25:39,11457,1,0.0000,-0.0047,-0.0034,0.0992,-0.0152,0,1.0000,0,0,2.2228,-1.9480,117.2056,-3.5426,174.1772,0.000,0.000,0.192,0.0000,0.0000,0.0000,0.0000,0.0000,0.0000,0
2026-04-17,08:25:39,11500,1,0.0000,0.0076,-0.0045,0.1311,-0.0152,0,1.0000,0,0,2.5092,3.5805,116.8395,-6.4012,174.3715,0.000,0.000,0.188,0.0000,0.0000,0.0000,0.0000,0.0000,0.0000,0
2026-04-17,08:25:39,11543,1,0.0000,0.0007,-0.0042,0.1241,-0.0152,0,1.0000,0,0,2.7549,8.2421,116.7316,-3.2151,174.6048,0.000,0.000,0.184,0.0000,0.0000,0.0000,0.0000,0.0000,0.0000,0
2026-04-17,08:25:39,11586,1,0.0000,0.0052,-0.0049,0.1454,-0.0152,0,1.0000,0,0,3.1319,7.0654,116.4466,-5.7080,174.6535,0.000,0.000,0.180,0.0000,0.0000,0.0000,0.0000,0.0000,0.0000,0
2026-04-17,08:25:39,11627,1,0.0000,-0.0227,-0.0021,0.0603,-0.0152,0,1.0000,0,0,3.4086,6.4244,115.9370,-9.3272,175.0099,0.000,0.000,0.176,0.0000,0.0000,0.0000,0.0000,0.0000,0.0000,0
2026-04-17,08:25:39,11669,1,0.0000,-0.0125,-0.0039,0.1133,-0.0152,0,1.0000,0,0,3.3978,-0.7904,115.5706,-6.9034,175.3246,0.000,0.000,0.173,0.0000,0.0000,0.0000,0.0000,0.0000,0.0000,0
2026-04-17,08:25:39,11712,1,0.0000,0.0023,-0.0036,0.1064,-0.0152,0,1.0000,0,0,3.1127,-7.1603,115.8433,2.2690,175.7274,0.000,0.000,0.169,0.0000,0.0000,0.0000,0.0000,0.0000,0.0000,0
2026-04-17,08:25:39,11755,1,0.0000,-0.0036,-0.0041,0.1205,-0.0152,0,1.0000,0,0,2.7037,-9.9087,116.2674,7.4664,175.8027,0.000,0.000,0.165,0.0000,0.0000,0.0000,0.0000,0.0000,0.0000,0
2026-04-17,08:25:39,11798,1,0.0000,-0.0025,-0.0041,0.1205,-0.0152,0,1.0000,0,0,2.2892,-10.1229,116.5627,6.9806,175.6639,0.000,0.000,0.161,0.0000,0.0000,0.0000,0.0000,0.0000,0.0000,0
2026-04-17,08:25:39,11839,1,0.0000,-0.0034,-0.0036,0.1062,-0.0152,0,1.0000,0,0,1.8655,-10.3503,116.7837,5.8977,175.3919,0.000,0.000,0.157,0.0000,0.0000,0.0000,0.0000,0.0000,0.0000,0
2026-04-17,08:25:39,11881,1,0.0000,0.0102,-0.0035,0.1027,-0.0152,0,1.0000,0,0,1.7315,-2.6459,116.9305,3.8227,175.0293,0.000,0.000,0.153,0.0000,0.0000,0.0000,0.0000,0.0000,0.0000,0
2026-04-17,08:25:39,11922,1,0.0000,0.0107,-0.0031,0.0921,-0.0152,0,1.0000,0,0,2.2240,11.4906,116.8412,-0.7870,174.6347,0.000,0.000,0.149,0.0000,0.0000,0.0000,0.0000,0.0000,0.0000,0
2026-04-17,08:25:39,11965,1,0.0000,0.0048,-0.0034,0.0992,-0.0152,0,1.0000,0,0,2.1649,-1.0177,116.4869,-5.7490,174.3988,0.000,0.000,0.145,0.0000,0.0000,0.0000,0.0000,0.0000,0.0000,0
2026-04-17,08:25:39,11998,1,0.0000,-0.0038,-0.0047,0.1383,-0.0152,0,1.0000,0,0,2.1247,-0.6551,116.1729,-7.7293,174.3188,0.000,0.000,0.142,0.0000,0.0000,0.0000,0.0000,0.0000,0.0000,0
2026-04-17,08:25:39,12039,1,0.0000,-0.0043,-0.0033,0.0957,-0.0152,0,1.0000,0,0,2.2273,-0.3866,115.9263,-7.0197,174.2314,0.000,0.000,0.138,0.0000,0.0000,0.0000,0.0000,0.0000,0.0000,0
2026-04-17,08:25:39,12072,1,0.0000,0.0068,-0.0039,0.1133,-0.0152,0,1.0000,0,0,2.0364,-5.7677,115.5404,-9.5232,174.2100,0.000,0.000,0.135,0.0000,0.0000,0.0000,0.0000,0.0000,0.0000,0
2026-04-17,08:25:39,12115,1,0.0000,-0.0006,-0.0039,0.1135,-0.0152,0,1.0000,0,0,1.8120,-4.7535,115.4487,-3.8203,174.5453,0.000,0.000,0.131,0.0000,0.0000,0.0000,0.0000,0.0000,0.0000,0
2026-04-17,08:25:39,12157,1,0.0000,-0.0060,-0.0027,0.0780,-0.0152,0,1.0000,0,0,1.6799,-2.8426,115.7000,2.2129,174.7478,0.000,0.000,0.127,0.0000,0.0000,0.0000,0.0000,0.0000,0.0000,0
2026-04-17,08:25:39,12200,1,0.0000,0.0040,-0.0025,0.0743,-0.0152,0,1.0000,0,0,1.6233,-1.8120,116.2267,8.9047,174.9698,0.000,0.000,0.123,0.0000,0.0000,0.0000,0.0000,0.0000,0.0000,0
2026-04-17,08:25:40,12242,1,0.0000,-0.0028,-0.0042,0.1239,-0.0152,0,1.0000,0,0,1.7426,6.2212,116.9349,13.6027,174.8924,0.000,0.000,0.119,0.0000,0.0000,0.0000,0.0000,0.0000,0.0000,0
2026-04-17,08:25:40,12275,1,0.0000,-0.0120,-0.0027,0.0780,-0.0152,0,1.0000,0,0,1.8586,5.0278,117.1274,8.2558,174.4829,0.000,0.000,0.116,0.0000,0.0000,0.0000,0.0000,0.0000,0.0000,0
2026-04-17,08:25:40,12318,1,0.0000,-0.0038,-0.0046,0.1346,-0.0152,0,1.0000,0,0,2.0634,3.9506,116.7373,-3.5171,174.2194,0.000,0.000,0.112,0.0000,0.0000,0.0000,0.0000,0.0000,0.0000,0
2026-04-17,08:25:40,12360,1,0.0000,0.0042,-0.0041,0.1204,-0.0152,0,1.0000,0,0,2.0382,0.6044,116.4907,-4.7209,174.3206,0.000,0.000,0.108,0.0000,0.0000,0.0000,0.0000,0.0000,0.0000,0
2026-04-17,08:25:40,12402,1,0.0000,0.0142,-0.0048,0.1417,-0.0152,0,1.0000,0,0,1.8657,-5.6375,116.5975,-0.1059,174.4456,0.000,0.000,0.104,0.0000,0.0000,0.0000,0.0000,0.0000,0.0000,0
2026-04-17,08:25:40,12444,1,0.0000,0.0066,-0.0047,0.1382,-0.0152,0,1.0000,0,0,1.4692,-8.8200,117.2604,11.2951,174.8989,0.000,0.000,0.100,0.0000,0.0000,0.0000,0.0000,0.0000,0.0000,0
2026-04-17,08:25:40,12487,1,0.0000,0.0125,-0.0046,0.1348,-0.0152,0,1.0000,0,0,1.1297,-6.2166,118.9059,28.5951,175.1510,0.000,0.000,0.096,0.0000,0.0000,0.0000,0.0000,0.0000,0.0000,0
2026-04-17,08:25:40,12530,1,0.0000,-0.0035,-0.0043,0.1276,-0.0152,0,1.0000,0,0,0.8625,-4.6198,120.7166,35.7602,175.1793,0.000,0.000,0.092,0.0000,0.0000,0.0000,0.0000,0.0000,0.0000,0
2026-04-17,08:25:40,12564,1,0.0000,-0.0037,-0.0039,0.1135,-0.0152,0,1.0000,0,0,0.5014,-7.1748,122.5581,40.1453,175.0845,0.000,0.000,0.090,0.0000,0.0000,0.0000,0.0000,0.0000,0.0000,0
2026-04-17,08:25:40,12597,1,0.0000,-0.0047,-0.0039,0.1133,-0.0152,0,1.0000,0,0,0.5989,2.2020,123.3554,29.2451,174.5639,0.000,0.000,0.087,0.0000,0.0000,0.0000,0.0000,0.0000,0.0000,0
2026-04-17,08:25:40,12639,1,0.0000,0.0020,-0.0047,0.1382,-0.0152,0,1.0000,0,0,0.8519,7.6166,123.2673,6.5118,173.7937,0.000,0.000,0.083,0.0000,0.0000,0.0000,0.0000,0.0000,0.0000,0
2026-04-17,08:25:40,12681,1,0.0000,0.0043,-0.0036,0.1062,-0.0152,0,1.0000,0,0,1.2192,9.7085,122.9808,-2.2609,173.5019,0.000,0.000,0.079,0.0000,0.0000,0.0000,0.0000,0.0000,0.0000,0
2026-04-17,08:25:40,12723,1,0.0000,-0.0014,-0.0034,0.0992,-0.0152,0,1.0000,0,0,1.5282,8.4429,123.1573,1.6980,173.2988,0.000,0.000,0.075,0.0000,0.0000,0.0000,0.0000,0.0000,0.0000,0
,,12765,1,0.0000,0.0090,-0.0045,0.1313,-0.0152,0,1.0000,0,0,1.8914,11.9817,123.4146,3.3293,172.7840,0.000,0.000,0.071,0.0000,0.0000,0.0000,0.0000,0.0000,0.0000,0
2026-04-17,08:25:40,12808,1,0.0000,-0.0010,-0.0039,0.1133,-0.0152,0,1.0000,0,0,2.3660,12.9998,123.3243,-1.1534,172.1763,0.000,0.000,0.067,0.0000,0.0000,0.0000,0.0000,0.0000,0.0000,0
2026-04-17,08:25:40,12851,1,0.0000,-0.0040,-0.0039,0.1133,-0.0152,0,1.0000,0,0,2.7960,10.2372,122.8856,-6.9962,172.0706,0.000,0.000,0.063,0.0000,0.0000,0.0000,0.0000,0.0000,0.0000,0
2026-04-17,08:25:40,12893,1,0.0000,0.0126,-0.0033,0.0958,-0.0152,0,1.0000,0,0,3.0921,6.1131,122.4699,-8.5706,172.2368,0.000,0.000,0.059,0.0000,0.0000,0.0000,0.0000,0.0000,0.0000,0
2026-04-17,08:25:40,12936,1,0.0000,0.0156,-0.0036,0.1061,-0.0152,0,1.0000,0,0,3.2573,5.0203,122.2372,-5.4768,172.6750,0.000,0.000,0.055,0.0000,0.0000,0.0000,0.0000,0.0000,0.0000,0
2026-04-17,08:25:40,12978,1,0.0000,0.0028,-0.0029,0.0851,-0.0152,0,1.0000,0,0,3.8370,17.4630,122.4084,1.0011,173.0066,0.000,0.000,0.051,0.0000,0.0000,0.0000,0.0000,0.0000,0.0000,0
2026-04-17,08:25:40,13021,1,0.0000,0.0060,-0.0040,0.1170,-0.0152,0,1.0000,0,0,4.1462,7.6784,122.0319,-6.4766,172.6641,0.000,0.000,0.047,0.0000,0.0000,0.0000,0.0000,0.0000,0.0000,0
2026-04-17,08:25:40,13064,1,0.0000,-0.0058,-0.0043,0.1274,-0.0152,0,1.0000,0,0,4.4528,7.0439,120.8018,-19.8406,172.8055,0.000,0.000,0.043,0.0000,0.0000,0.0000,0.0000,0.0000,0.0000,0
2026-04-17,08:25:40,13097,1,0.0000,-0.0053,-0.0037,0.1098,-0.0152,0,1.0000,0,0,4.7876,9.6339,120.1472,-18.5945,173.1346,0.000,0.000,0.040,0.0000,0.0000,0.0000,0.0000,0.0000,0.0000,0
2026-04-17,08:25:40,13140,1,0.0000,0.0055,-0.0040,0.1170,-0.0152,0,1.0000,0,0,4.8887,1.3236,119.9135,-9.0039,173.4624,0.000,0.000,0.036,0.0000,0.0000,0.0000,0.0000,0.0000,0.0000,0
2026-04-17,08:25:40,13182,1,0.0000,0.0090,-0.0041,0.1204,-0.0152,0,1.0000,0,0,4.8084,-2.2915,119.6601,-6.7141,173.7543,0.000,0.000,0.032,0.0000,0.0000,0.0000,0.0000,0.0000,0.0000,0
2026-04-17,08:25:41,13225,1,0.0000,-0.0123,-0.0047,0.1382,-0.0152,0,1.0000,0,0,4.7333,-1.7744,119.3359,-6.8370,174.2661,0.000,0.000,0.028,0.0000,0.0000,0.0000,0.0000,0.0000,0.0000,0
2026-04-17,08:25:41,13268,1,0.0000,-0.0097,-0.0036,0.1062,-0.0152,0,1.0000,0,0,4.7462,-0.2834,119.2938,-2.2227,174.8875,0.000,0.000,0.024,0.0000,0.0000,0.0000,0.0000,0.0000,0.0000,0
2026-04-17,08:25:41,13301,1,0.0000,0.0068,-0.0036,0.1062,-0.0152,0,1.0000,0,0,4.8001,1.0534,119.2247,-1.6606,175.4160,0.000,0.000,0.021,0.0000,0.0000,0.0000,0.0000,0.0000,0.0000,0
2026-04-17,08:25:41,13344,1,0.0000,0.0019,-0.0049,0.1456,-0.0152,0,1.0000,0,0,4.9400,2.8188,119.1460,-0.9791,176.0924,0.000,0.000,0.017,0.0000,0.0000,0.0000,0.0000,0.0000,0.0000,0
2026-04-17,08:25:41,13387,1,0.0000,-0.0123,-0.0026,0.0779,-0.0152,0,1.0000,0,0,5.1607,4.7825,118.8117,-5.1286,176.5399,0.000,0.000,0.013,0.0000,0.0000,0.0000,0.0000,0.0000,0.0000,0
2026-04-17,08:25:41,13430,1,0.0000,0.0040,-0.0041,0.1204,-0.0152,0,1.0000,0,0,5.3742,3.5168,118.3308,-8.1936,176.9780,0.000,0.000,0.009,0.0000,0.0000,0.0000,0.0000,0.0000,0.0000,0
2026-04-17,08:25:41,13464,1,0.0000,-0.0023,-0.0037,0.1097,-0.0152,0,1.0000,0,0,5.7045,5.8742,117.4319,-12.2885,177.2352,0.000,0.000,0.007,0.0000,0.0000,0.0000,0.0000,0.0000,0.0000,0
2026-04-17,08:25:41,13507,1,0.0000,0.0035,-0.0045,0.1311,-0.0152,0,1.0000,0,0,5.3086,-9.4644,116.9361,-10.5319,177.5169,0.000,0.000,0.003,0.0000,0.0000,0.0000,0.0000,0.0000,0.0000,0
2026-04-17,08:25:41,13550,1,0.0000,-0.0138,-0.0036,0.1062,-0.0152,0,1.0000,0,0,5.0673,-7.5624,116.2706,-12.1147,177.6140,0.000,0.000,0.000,0.0000,0.0000,0.0000,0.0000,0.0000,0.0000,0
2026-04-17,08:25:41,13593,1,0.0000,-0.0037,-0.0048,0.1417,-0.0152,0,1.0000,0,0,4.7894,-8.9380,115.3588,-16.4089,177.7081,0.000,0.000,0.000,0.0000,0.0000,0.0000,0.0000,0.0000,0.0000,0
2026-04-17,08:25:41,13636,1,0.0000,0.0032,-0.0047,0.1382,-0.0152,0,1.0000,0,0,4.5095,-8.2780,114.2842,-20.0969,177.7927,0.000,0.000,0.000,0.0000,0.0000,0.0000,0.0000,0.0000,0.0000,0
2026-04-17,08:25:41,13679,1,0.0000,0.0024,-0.0041,0.1205,-0.0152,0,1.0000,0,0,4.2537,-8.7546,113.1646,-21.8228,177.8381,0.000,0.000,0.000,0.0000,0.0000,0.0000,0.0000,0.0000,0.0000,0
2026-04-17,08:25:41,13715,1,0.0000,-0.0050,-0.0034,0.0994,-0.0152,0,1.0000,0,0,3.9779,-9.3794,112.2647,-21.6397,177.9236,0.000,0.000,0.000,0.0000,0.0000,0.0000,0.0000,0.0000,0.0000,0
2026-04-17,08:25:41,13748,1,0.0000,0.0066,-0.0036,0.1062,-0.0152,0,1.0000,0,0,3.8055,-8.2113,111.4123,-22.0743,177.9810,0.000,0.000,0.000,0.0000,0.0000,0.0000,0.0000,0.0000,0.0000,0
2026-04-17,08:25:41,13791,1,0.0000,0.0059,-0.0041,0.1204,-0.0152,0,1.0000,0,0,3.5163,-8.1363,110.3813,-22.2204,178.0751,0.000,0.000,0.000,0.0000,0.0000,0.0000,0.0000,0.0000,0.0000,0
2026-04-17,08:25:41,13833,1,0.0000,0.0064,-0.0041,0.1204,-0.0152,0,1.0000,0,0,3.0293,-14.1786,109.3409,-22.4263,178.1905,0.000,0.000,0.000,0.0000,0.0000,0.0000,0.0000,0.0000,0.0000,0
2026-04-17,08:25:41,13875,1,0.0000,-0.0046,-0.0034,0.0992,-0.0152,0,1.0000,0,0,2.4987,-15.4772,108.2065,-23.9558,178.2765,0.000,0.000,0.000,0.0000,0.0000,0.0000,0.0000,0.0000,0.0000,0
2026-04-17,08:25:41,13918,1,0.0000,0.0141,-0.0053,0.1560,-0.0152,0,1.0000,0,0,1.8598,-18.9419,106.9410,-25.7290,178.2936,0.000,0.000,0.000,0.0000,0.0000,0.0000,0.0000,0.0000,0.0000,0
2026-04-17,08:25:41,13952,1,0.0000,0.0071,-0.0043,0.1276,-0.0152,0,1.0000,0,0,1.2998,-19.5231,105.9037,-27.1162,178.2846,0.000,0.000,0.000,0.0000,0.0000,0.0000,0.0000,0.0000,0.0000,0
2026-04-17,08:25:41,13995,1,0.0000,0.0029,-0.0040,0.1170,-0.0152,0,1.0000,0,0,0.5401,-19.1152,104.7873,-25.3559,178.2130,0.000,0.000,0.000,0.0000,0.0000,0.0000,0.0000,0.0000,0.0000,0
2026-04-17,08:25:41,14038,1,0.0000,-0.0103,-0.0037,0.1098,-0.0152,0,1.0000,0,0,-0.2592,-20.9296,103.7935,-21.8805,178.1931,0.000,0.000,0.000,0.0000,0.0000,0.0000,0.0000,0.0000,0.0000,0
2026-04-17,08:25:41,14081,1,0.0000,0.0044,-0.0041,0.1205,-0.0152,0,1.0000,0,0,-1.0727,-20.9986,103.3009,-13.2315,178.2717,0.000,0.000,0.000,0.0000,0.0000,0.0000,0.0000,0.0000,0.0000,0
2026-04-17,08:25:41,14124,1,0.0000,-0.0204,-0.0035,0.1027,-0.0152,0,1.0000,0,0,-1.7620,-17.4538,103.1678,-5.6079,178.0970,0.000,0.000,0.000,0.0000,0.0000,0.0000,0.0000,0.0000,0.0000,0
2026-04-17,08:25:41,14167,1,0.0000,-0.0027,-0.0029,0.0850,-0.0152,0,1.0000,0,0,-2.3508,-14.9558,103.0563,-3.1416,177.9487,0.000,0.000,0.000,0.0000,0.0000,0.0000,0.0000,0.0000,0.0000,0
2026-04-17,08:25:41,14200,1,0.0000,0.0072,-0.0045,0.1311,-0.0152,0,1.0000,0,0,-2.7341,-12.7098,102.9305,-3.1434,177.8835,0.000,0.000,0.000,0.0000,0.0000,0.0000,0.0000,0.0000,0.0000,0
2026-04-17,08:25:42,14241,1,0.0000,-0.0107,-0.0034,0.0993,-0.0152,0,1.0000,0,0,-3.1207,-9.3124,102.7731,-3.2786,177.7937,0.000,0.000,0.000,0.0000,0.0000,0.0000,0.0000,0.0000,0.0000,0
2026-04-17,08:25:42,14283,1,0.0000,0.0019,-0.0037,0.1098,-0.0152,0,1.0000,0,0,-3.3182,-6.7067,102.3688,-7.3890,177.6551,0.000,0.000,0.000,0.0000,0.0000,0.0000,0.0000,0.0000,0.0000,0
2026-04-17,08:25:42,14316,1,0.0000,-0.0083,-0.0037,0.1098,-0.0152,0,1.0000,0,0,-3.5624,-8.7300,101.9925,-9.3839,177.5738,0.000,0.000,0.000,0.0000,0.0000,0.0000,0.0000,0.0000,0.0000,0
2026-04-17,08:25:42,14359,1,0.0000,-0.0012,-0.0037,0.1098,-0.0152,0,1.0000,0,0,-3.6657,-7.8237,101.4975,-9.3347,177.5155,0.000,0.000,0.000,0.0000,0.0000,0.0000,0.0000,0.0000,0.0000,0
2026-04-17,08:25:42,14403,1,0.0000,-0.0038,-0.0040,0.1170,-0.0152,0,1.0000,0,0,-4.0933,-10.3292,101.2290,-6.9583,177.4147,0.000,0.000,0.000,0.0000,0.0000,0.0000,0.0000,0.0000,0.0000,0
2026-04-17,08:25:42,14446,1,0.0000,-0.0072,-0.0025,0.0743,-0.0152,0,1.0000,0,0,-4.4686,-9.7198,101.0683,-4.4602,177.3020,0.000,0.000,0.000,0.0000,0.0000,0.0000,0.0000,0.0000,0.0000,0
2026-04-17,08:25:42,14488,1,0.0000,0.0109,-0.0042,0.1241,-0.0152,0,1.0000,0,0,-4.7158,-6.6664,100.9506,-3.2370,177.1573,0.000,0.000,0.000,0.0000,0.0000,0.0000,0.0000,0.0000,0.0000,0
2026-04-17,08:25:42,14530,1,0.0000,0.0033,-0.0037,0.1100,-0.0152,0,1.0000,0,0,-4.7983,-2.2133,100.8551,-2.1870,176.9646,0.000,0.000,0.000,0.0000,0.0000,0.0000,0.0000,0.0000,0.0000,0
2026-04-17,08:25:42,14572,1,0.0000,0.0032,-0.0042,0.1239,-0.0152,0,1.0000,0,0,-4.8388,-1.8912,100.8980,-0.0408,176.7785,0.000,0.000,0.000,0.0000,0.0000,0.0000,0.0000,0.0000,0.0000,0
2026-04-17,08:25:42,14615,1,0.0000,-0.0025,-0.0040,0.1170,-0.0152,0,1.0000,0,0,-4.9281,-3.6085,100.8755,-0.2822,176.6346,0.000,0.000,0.000,0.0000,0.0000,0.0000,0.0000,0.0000,0.0000,0
2026-04-17,08:25:42,14658,1,0.0000,-0.0036,-0.0034,0.0994,-0.0152,0,1.0000,0,0,-5.0938,-5.6128,100.9310,1.0842,176.5324,0.000,0.000,0.000,0.0000,0.0000,0.0000,0.0000,0.0000,0.0000,0
2026-04-17,08:25:42,14700,1,0.0000,-0.0003,-0.0037,0.1098,-0.0152,0,1.0000,0,0,-5.4768,-11.2691,101.0971,3.2190,176.3997,0.000,0.000,0.000,0.0000,0.0000,0.0000,0.0000,0.0000,0.0000,0
2026-04-17,08:25:42,14733,1,0.0000,0.0057,-0.0037,0.1100,-0.0152,0,1.0000,0,0,-5.8775,-14.1555,101.1909,3.1501,176.3305,0.000,0.000,0.000,0.0000,0.0000,0.0000,0.0000,0.0000,0.0000,0
2026-04-17,08:25:42,14776,1,0.0000,0.0164,-0.0051,0.1488,-0.0152,0,1.0000,0,0,-6.6065,-18.8028,101.4000,4.7162,176.2564,0.000,0.000,0.000,0.0000,0.0000,0.0000,0.0000,0.0000,0.0000,0
2026-04-17,08:25:42,14819,1,0.0000,-0.0032,-0.0030,0.0886,-0.0152,0,1.0000,0,0,-7.3734,-19.8162,101.5886,4.7678,176.2525,0.000,0.000,0.000,0.0000,0.0000,0.0000,0.0000,0.0000,0.0000,0
2026-04-17,08:25:42,14861,1,0.0000,-0.0115,-0.0041,0.1204,-0.0152,0,1.0000,0,0,-8.2287,-22.4386,101.6986,3.3562,176.2551,0.000,0.000,0.000,0.0000,0.0000,0.0000,0.0000,0.0000,0.0000,0
2026-04-17,08:25:42,14904,1,0.0000,-0.0067,-0.0040,0.1170,-0.0152,0,1.0000,0,0,-9.1276,-22.4034,101.6051,-0.6269,176.1542,0.000,0.000,0.000,0.0000,0.0000,0.0000,0.0000,0.0000,0.0000,0
2026-04-17,08:25:42,14937,1,0.0000,-0.0062,-0.0040,0.1170,-0.0152,0,1.0000,0,0,-9.7920,-20.4021,101.4453,-2.9066,175.9921,0.000,0.000,0.000,0.0000,0.0000,0.0000,0.0000,0.0000,0.0000,0
2026-04-17,08:25:42,14980,1,0.0000,-0.0042,-0.0040,0.1171,-0.0152,0,1.0000,0,0,-10.3939,-12.6580,101.3188,-3.0625,175.7225,0.000,0.000,0.000,0.0000,0.0000,0.0000,0.0000,0.0000,0.0000,0
2026-04-17,08:25:42,15023,1,0.0000,0.0111,-0.0040,0.1170,-0.0152,0,1.0000,0,0,-10.6004,-2.7378,101.0281,-6.0127,175.4213,0.000,0.000,0.000,0.0000,0.0000,0.0000,0.0000,0.0000,0.0000,0
2026-04-17,08:25:42,15066,1,0.0000,0.0131,-0.0039,0.1133,-0.0152,0,1.0000,0,0,-10.4375,4.7726,100.7691,-5.9884,175.2744,0.000,0.000,0.000,0.0000,0.0000,0.0000,0.0000,0.0000,0.0000,0
2026-04-17,08:25:42,15109,1,0.0000,0.0005,-0.0045,0.1311,-0.0152,0,1.0000,0,0,-10.0712,10.6380,100.4914,-6.7516,175.1409,0.000,0.000,0.000,0.0000,0.0000,0.0000,0.0000,0.0000,0.0000,0
2026-04-17,08:25:42,15142,1,0.0000,-0.0036,-0.0035,0.1027,-0.0152,0,1.0000,0,0,-9.7203,12.6031,100.2899,-6.6553,175.1815,0.000,0.000,0.000,0.0000,0.0000,0.0000,0.0000,0.0000,0.0000,0
2026-04-17,08:25:42,15185,1,0.0000,0.0002,-0.0037,0.1097,-0.0152,0,1.0000,0,0,-9.2016,13.2803,99.9661,-7.7399,175.2913,0.000,0.000,0.000,0.0000,0.0000,0.0000,0.0000,0.0000,0.0000,0
2026-04-17,08:25:43,15227,1,0.0000,-0.0040,-0.0035,0.1027,-0.0152,0,1.0000,0,0,-8.8450,9.0990,99.6662,-7.5211,175.5013,0.000,0.000,0.000,0.0000,0.0000,0.0000,0.0000,0.0000,0.0000,0
2026-04-17,08:25:43,15270,1,0.0000,0.0111,-0.0046,0.1345,-0.0152,0,1.0000,0,0,-8.8327,5.6779,99.5287,-6.4184,175.6583,0.000,0.000,0.000,0.0000,0.0000,0.0000,0.0000,0.0000,0.0000,0
2026-04-17,08:25:43,15311,1,0.0000,-0.0039,-0.0022,0.0637,-0.0152,0,1.0000,0,0,-8.4733,10.2441,99.2464,-7.0176,175.8582,0.000,0.000,0.000,0.0000,0.0000,0.0000,0.0000,0.0000,0.0000,0
2026-04-17,08:25:43,15353,1,0.0000,-0.0103,-0.0037,0.1098,-0.0152,0,1.0000,0,0,-7.8787,16.0769,98.9933,-6.4761,175.9506,0.000,0.000,0.000,0.0000,0.0000,0.0000,0.0000,0.0000,0.0000,0
2026-04-17,08:25:43,15396,1,0.0000,-0.0000,-0.0033,0.0957,-0.0152,0,1.0000,0,0,-7.1717,17.7841,98.8847,-4.0369,175.9445,0.000,0.000,0.000,0.0000,0.0000,0.0000,0.0000,0.0000,0.0000,0
2026-04-17,08:25:43,15439,1,0.0000,0.0036,-0.0030,0.0884,-0.0152,0,1.0000,0,0,-6.5560,14.7757,98.7192,-4.0010,175.7473,0.000,0.000,0.000,0.0000,0.0000,0.0000,0.0000,0.0000,0.0000,0
2026-04-17,08:25:43,15481,1,0.0000,-0.0037,-0.0035,0.1027,-0.0152,0,1.0000,0,0,-6.1290,9.7557,98.7033,-1.5184,175.7628,0.000,0.000,0.000,0.0000,0.0000,0.0000,0.0000,0.0000,0.0000,0
2026-04-17,08:25:43,15523,1,0.0000,-0.0124,-0.0042,0.1240,-0.0152,0,1.0000,0,0,-5.9953,2.4242,98.6907,-1.4187,175.9011,0.000,0.000,0.000,0.0000,0.0000,0.0000,0.0000,0.0000,0.0000,0
2026-04-17,08:25:43,15567,1,0.0000,0.0005,-0.0037,0.1098,-0.0152,0,1.0000,0,0,-6.2043,-5.1405,98.5164,-3.0190,176.1482,0.000,0.000,0.000,0.0000,0.0000,0.0000,0.0000,0.0000,0.0000,0
2026-04-17,08:25:43,15600,1,0.0000,-0.0005,-0.0040,0.1168,-0.0152,0,1.0000,0,0,-6.4254,-6.7390,98.4671,-2.0858,176.2852,0.000,0.000,0.000,0.0000,0.0000,0.0000,0.0000,0.0000,0.0000,0
2026-04-17,08:25:43,15643,1,0.0000,0.0114,-0.0047,0.1382,-0.0152,0,1.0000,0,0,-6.7818,-8.8037,98.3221,-2.9828,176.3693,0.000,0.000,0.000,0.0000,0.0000,0.0000,0.0000,0.0000,0.0000,0
2026-04-17,08:25:43,15686,1,0.0000,-0.0031,-0.0037,0.1098,-0.0152,0,1.0000,0,0,-7.1644,-8.7078,98.1879,-3.0643,176.3047,0.000,0.000,0.000,0.0000,0.0000,0.0000,0.0000,0.0000,0.0000,0
2026-04-17,08:25:43,15728,1,0.0000,-0.0067,-0.0033,0.0957,-0.0152,0,1.0000,0,0,-7.3476,-3.2453,98.0757,-2.7114,176.1724,0.000,0.000,0.000,0.0000,0.0000,0.0000,0.0000,0.0000,0.0000,0
2026-04-17,08:25:43,15771,1,0.0000,-0.0055,-0.0039,0.1135,-0.0152,0,1.0000,0,0,-7.2635,3.8171,97.9460,-3.3336,176.0657,0.000,0.000,0.000,0.0000,0.0000,0.0000,0.0000,0.0000,0.0000,0
2026-04-17,08:25:43,15812,1,0.0000,0.0053,-0.0034,0.0992,-0.0152,0,1.0000,0,0,-6.8517,11.4172,97.7595,-4.2409,175.9482,0.000,0.000,0.000,0.0000,0.0000,0.0000,0.0000,0.0000,0.0000,0
2026-04-17,08:25:43,15855,1,0.0000,-0.0073,-0.0039,0.1133,-0.0152,0,1.0000,0,0,-6.2690,15.3161,97.5329,-5.2323,175.8753,0.000,0.000,0.000,0.0000,0.0000,0.0000,0.0000,0.0000,0.0000,0
2026-04-17,08:25:43,15896,1,0.0000,-0.0041,-0.0036,0.1063,-0.0152,0,1.0000,0,0,-5.6981,14.5597,97.2282,-6.8490,175.7124,0.000,0.000,0.000,0.0000,0.0000,0.0000,0.0000,0.0000,0.0000,0
2026-04-17,08:25:43,15939,1,0.0000,0.0001,-0.0037,0.1098,-0.0152,0,1.0000,0,0,-5.2953,9.1838,97.0931,-4.3867,175.7178,0.000,0.000,0.000,0.0000,0.0000,0.0000,0.0000,0.0000,0.0000,0
2026-04-17,08:25:43,15980,1,0.0000,0.0030,-0.0030,0.0886,-0.0152,0,1.0000,0,0,-5.0418,6.3449,97.0505,-2.5465,175.7335,0.000,0.000,0.000,0.0000,0.0000,0.0000,0.0000,0.0000,0.0000,0
2026-04-17,08:25:43,16013,1,0.0000,-0.0078,-0.0037,0.1100,-0.0152,0,1.0000,0,0,-4.9068,4.3664,96.9296,-3.1814,175.8287,0.000,0.000,0.000,0.0000,0.0000,0.0000,0.0000,0.0000,0.0000,0
2026-04-17,08:25:43,16055,1,0.0000,-0.0038,-0.0029,0.0850,-0.0152,0,1.0000,0,0,-4.8466,1.8322,96.9035,-1.5256,175.9913,0.000,0.000,0.000,0.0000,0.0000,0.0000,0.0000,0.0000,0.0000,0
2026-04-17,08:25:43,16088,1,0.0000,0.0067,-0.0045,0.1311,-0.0152,0,1.0000,0,0,-4.8156,1.1525,96.8443,-1.8696,176.0196,0.000,0.000,0.000,0.0000,0.0000,0.0000,0.0000,0.0000,0.0000,0
2026-04-17,08:25:43,16130,1,0.0000,0.0037,-0.0040,0.1170,-0.0152,0,1.0000,0,0,-4.7854,1.4090,96.7737,-1.5699,176.1273,0.000,0.000,0.000,0.0000,0.0000,0.0000,0.0000,0.0000,0.0000,0
2026-04-17,08:25:43,16172,1,0.0000,0.0066,-0.0045,0.1311,-0.0152,0,1.0000,0,0,-4.7431,2.3956,96.7601,-1.4664,176.0313,0.000,0.000,0.000,0.0000,0.0000,0.0000,0.0000,0.0000,0.0000,0
2026-04-17,08:25:43,16215,1,0.0000,-0.0046,-0.0037,0.1100,-0.0152,0,1.0000,0,0,-4.5548,4.8499,96.6298,-2.6042,175.8784,0.000,0.000,0.000,0.0000,0.0000,0.0000,0.0000,0.0000,0.0000,0
2026-04-17,08:25:44,16258,1,0.0000,0.0032,-0.0043,0.1278,-0.0152,0,1.0000,0,0,-4.3577,4.9353,96.5758,-1.9422,175.7155,0.000,0.000,0.000,0.0000,0.0000,0.0000,0.0000,0.0000,0.0000,0
2026-04-17,08:25:44,16301,1,0.0000,-0.0157,-0.0036,0.1062,-0.0152,0,1.0000,0,0,-4.1770,3.7755,96.4748,-2.2412,175.7477,0.000,0.000,0.000,0.0000,0.0000,0.0000,0.0000,0.0000,0.0000,0
2026-04-17,08:25:44,16344,1,0.0000,0.0051,-0.0039,0.1135,-0.0152,0,1.0000,0,0,-4.1621,-0.6317,96.5433,0.4073,175.8378,0.000,0.000,0.000,0.0000,0.0000,0.0000,0.0000,0.0000,0.0000,0
2026-04-17,08:25:44,16388,1,0.0000,0.0102,-0.0041,0.1204,-0.0152,0,1.0000,0,0,-4.2787,-3.0045,96.6563,1.9099,176.0659,0.000,0.000,0.000,0.0000,0.0000,0.0000,0.0000,0.0000,0.0000,0
2026-04-17,08:25:44,16431,1,0.0000,0.0029,-0.0034,0.0992,-0.0152,0,1.0000,0,0,-4.5220,-6.1606,96.7136,1.5631,176.2448,0.000,0.000,0.000,0.0000,0.0000,0.0000,0.0000,0.0000,0.0000,0
2026-04-17,08:25:44,16464,1,0.0000,-0.0031,-0.0029,0.0851,-0.0152,0,1.0000,0,0,-4.7175,-5.8872,96.7883,2.0027,176.2793,0.000,0.000,0.000,0.0000,0.0000,0.0000,0.0000,0.0000,0.0000,0
2026-04-17,08:25:44,16507,1,0.0000,0.0019,-0.0046,0.1347,-0.0152,0,1.0000,0,0,-4.8824,-3.4373,96.8580,1.7927,176.2107,0.000,0.000,0.000,0.0000,0.0000,0.0000,0.0000,0.0000,0.0000,0
2026-04-17,08:25:44,16549,1,0.0000,-0.0025,-0.0031,0.0921,-0.0152,0,1.0000,0,0,-4.8878,0.7323,96.9447,1.9246,176.0335,0.000,0.000,0.000,0.0000,0.0000,0.0000,0.0000,0.0000,0.0000,0
2026-04-17,08:25:44,16591,1,0.0000,-0.0015,-0.0036,0.1064,-0.0152,0,1.0000,0,0,-4.7532,3.7787,96.9404,0.4762,175.9109,0.000,0.000,0.000,0.0000,0.0000,0.0000,0.0000,0.0000,0.0000,0
2026-04-17,08:25:44,16632,1,0.0000,-0.0021,-0.0039,0.1133,-0.0152,0,1.0000,0,0,-4.6180,3.6920,96.8630,-1.1708,175.7732,0.000,0.000,0.000,0.0000,0.0000,0.0000,0.0000,0.0000,0.0000,0
2026-04-17,08:25:44,16675,1,0.0000,0.0035,-0.0032,0.0956,-0.0152,0,1.0000,0,0,-4.5162,2.8285,96.8750,-0.2763,175.7838,0.000,0.000,0.000,0.0000,0.0000,0.0000,0.0000,0.0000,0.0000,0
2026-04-17,08:25:44,16718,1,0.0000,0.0117,-0.0037,0.1098,-0.0152,0,1.0000,0,0,-4.4547,1.3849,96.7869,-1.6171,175.7735,0.000,0.000,0.000,0.0000,0.0000,0.0000,0.0000,0.0000,0.0000,0
2026-04-17,08:25:44,16760,1,0.0000,0.0082,-0.0048,0.1417,-0.0152,0,1.0000,0,0,-4.4952,-1.3553,96.6253,-3.2610,175.8242,0.000,0.000,0.000,0.0000,0.0000,0.0000,0.0000,0.0000,0.0000,0
2026-04-17,08:25:44,16803,1,0.0000,0.0016,-0.0039,0.1135,-0.0152,0,1.0000,0,0,-4.6098,-2.5294,96.5537,-2.1219,175.8801,0.000,0.000,0.000,0.0000,0.0000,0.0000,0.0000,0.0000,0.0000,0
2026-04-17,08:25:44,16845,1,0.0000,0.0015,-0.0025,0.0745,-0.0152,0,1.0000,0,0,-4.6771,-1.6407,96.5027,-1.4742,175.9504,0.000,0.000,0.000,0.0000,0.0000,0.0000,0.0000,0.0000,0.0000,0
2026-04-17,08:25:44,16888,1,0.0000,-0.0009,-0.0037,0.1097,-0.0152,0,1.0000,0,0,-4.7190,-0.4137,96.5391,0.0091,175.9494,0.000,0.000,0.000,0.0000,0.0000,0.0000,0.0000,0.0000,0.0000,0
2026-04-17,08:25:44,16931,1,0.0000,0.0065,-0.0041,0.1206,-0.0152,0,1.0000,0,0,-4.7079,0.8698,96.5563,0.2867,175.9375,0.000,0.000,0.000,0.0000,0.0000,0.0000,0.0000,0.0000,0.0000,0
2026-04-17,08:25:44,16974,1,0.0000,0.0030,-0.0041,0.1206,-0.0152,0,1.0000,0,0,-4.6899,0.6076,96.6065,0.9378,175.8914,0.000,0.000,0.000,0.0000,0.0000,0.0000,0.0000,0.0000,0.0000,0
2026-04-17,08:25:44,17016,1,0.0000,0.0054,-0.0036,0.1064,-0.0152,0,1.0000,0,0,-4.6422,1.3639,96.6921,1.6576,175.7578,0.000,0.000,0.000,0.0000,0.0000,0.0000,0.0000,0.0000,0.0000,0
2026-04-17,08:25:44,17058,1,0.0000,-0.0142,-0.0043,0.1277,-0.0152,0,1.0000,0,0,-4.5470,2.4964,96.7107,0.8751,175.7849,0.000,0.000,0.000,0.0000,0.0000,0.0000,0.0000,0.0000,0.0000,0
2026-04-17,08:25:44,17101,1,0.0000,-0.0081,-0.0039,0.1135,-0.0152,0,1.0000,0,0,-4.5087,2.1914,96.7230,0.4846,175.7863,0.000,0.000,0.000,0.0000,0.0000,0.0000,0.0000,0.0000,0.0000,0
2026-04-17,08:25:44,17142,1,0.0000,-0.0134,-0.0029,0.0850,-0.0152,0,1.0000,0,0,-4.3814,2.8484,96.7320,0.4359,175.8004,0.000,0.000,0.000,0.0000,0.0000,0.0000,0.0000,0.0000,0.0000,0
2026-04-17,08:25:44,17185,1,0.0000,0.0082,-0.0039,0.1133,-0.0152,0,1.0000,0,0,-4.3880,0.2439,96.7291,0.0340,175.8342,0.000,0.000,0.000,0.0000,0.0000,0.0000,0.0000,0.0000,0.0000,0
2026-04-17,08:25:45,17218,1,0.0000,0.0137,-0.0042,0.1241,-0.0152,0,1.0000,0,0,-4.4280,-0.7700,96.6573,-1.3893,175.8805,0.000,0.000,0.000,0.0000,0.0000,0.0000,0.0000,0.0000,0.0000,0
2026-04-17,08:25:45,17261,1,0.0000,-0.0005,-0.0043,0.1276,-0.0152,0,1.0000,0,0,-4.4295,0.3544,96.5549,-2.2104,175.8857,0.000,0.000,0.000,0.0000,0.0000,0.0000,0.0000,0.0000,0.0000,0
2026-04-17,08:25:45,17294,1,0.0000,0.0058,-0.0045,0.1311,-0.0152,0,1.0000,0,0,-4.3987,0.9129,96.5061,-1.7984,175.8209,0.000,0.000,0.000,0.0000,0.0000,0.0000,0.0000,0.0000,0.0000,0
2026-04-17,08:25:45,17337,1,0.0000,0.0061,-0.0037,0.1098,-0.0152,0,1.0000,0,0,-4.3663,1.3529,96.4189,-2.3173,175.8051,0.000,0.000,0.000,0.0000,0.0000,0.0000,0.0000,0.0000,0.0000,0
2026-04-17,08:25:45,17380,1,0.0000,-0.0065,-0.0037,0.1098,-0.0152,0,1.0000,0,0,-4.2486,3.5557,96.2887,-3.0120,175.7874,0.000,0.000,0.000,0.0000,0.0000,0.0000,0.0000,0.0000,0.0000,0
2026-04-17,08:25:45,17421,1,0.0000,0.0040,-0.0034,0.0992,-0.0152,0,1.0000,0,0,-4.0429,5.1121,96.2216,-2.1293,175.7685,0.000,0.000,0.000,0.0000,0.0000,0.0000,0.0000,0.0000,0.0000,0
2026-04-17,08:25:45,17462,1,0.0000,-0.0041,-0.0029,0.0850,-0.0152,0,1.0000,0,0,-3.9137,3.1726,96.1820,-1.3444,175.8054,0.000,0.000,0.000,0.0000,0.0000,0.0000,0.0000,0.0000,0.0000,0
2026-04-17,08:25:45,17505,1,0.0000,0.0016,-0.0037,0.1096,-0.0152,0,1.0000,0,0,-3.8283,2.4442,96.1560,-1.1534,175.7838,0.000,0.000,0.000,0.0000,0.0000,0.0000,0.0000,0.0000,0.0000,0
2026-04-17,08:25:45,17548,1,0.0000,-0.0004,-0.0033,0.0957,-0.0152,0,1.0000,0,0,-3.7700,1.2411,96.1477,-0.2716,175.8374,0.000,0.000,0.000,0.0000,0.0000,0.0000,0.0000,0.0000,0.0000,0
2026-04-17,08:25:45,17590,1,0.0000,-0.0015,-0.0037,0.1100,-0.0152,0,1.0000,0,0,-3.7672,0.4531,96.2146,0.7278,175.8385,0.000,0.000,0.000,0.0000,0.0000,0.0000,0.0000,0.0000,0.0000,0
2026-04-17,08:25:45,17633,1,0.0000,-0.0051,-0.0030,0.0886,-0.0152,0,1.0000,0,0,-3.7515,0.4908,96.1077,-1.6808,175.8100,0.000,0.000,0.000,0.0000,0.0000,0.0000,0.0000,0.0000,0.0000,0
2026-04-17,08:25:45,17675,1,0.0000,-0.0114,-0.0037,0.1098,-0.0152,0,1.0000,0,0,-3.6942,1.7507,96.0520,-1.3041,175.7543,0.000,0.000,0.000,0.0000,0.0000,0.0000,0.0000,0.0000,0.0000,0
2026-04-17,08:25:45,17708,1,0.0000,0.0009,-0.0027,0.0780,-0.0152,0,1.0000,0,0,-3.6255,2.0812,96.0513,-0.6866,175.7040,0.000,0.000,0.000,0.0000,0.0000,0.0000,0.0000,0.0000,0.0000,0
2026-04-17,08:25:45,17750,1,0.0000,0.0018,-0.0032,0.0956,-0.0152,0,1.0000,0,0,-3.5942,0.7331,96.0409,-0.2359,175.6972,0.000,0.000,0.000,0.0000,0.0000,0.0000,0.0000,0.0000,0.0000,0
2026-04-17,08:25:45,17792,1,0.0000,-0.0046,-0.0034,0.0994,-0.0152,0,1.0000,0,0,-3.6567,-1.0519,96.1065,0.7831,175.7110,0.000,0.000,0.000,0.0000,0.0000,0.0000,0.0000,0.0000,0.0000,0
2026-04-17,08:25:45,17835,1,0.0000,-0.0013,-0.0037,0.1098,-0.0152,0,1.0000,0,0,-3.6515,0.5815,96.0671,-0.5326,175.8056,0.000,0.000,0.000,0.0000,0.0000,0.0000,0.0000,0.0000,0.0000,0
2026-04-17,08:25:45,17877,1,0.0000,0.0060,-0.0030,0.0886,-0.0152,0,1.0000,0,0,-3.5887,1.8117,96.0501,-0.4508,175.9049,0.000,0.000,0.000,0.0000,0.0000,0.0000,0.0000,0.0000,0.0000,0
2026-04-17,08:25:45,17920,1,0.0000,-0.0074,-0.0035,0.1028,-0.0152,0,1.0000,0,0,-3.5304,0.9818,95.9847,-1.3523,175.9198,0.000,0.000,0.000,0.0000,0.0000,0.0000,0.0000,0.0000,0.0000,0
2026-04-17,08:25:45,17962,1,0.0000,0.0085,-0.0040,0.1170,-0.0152,0,1.0000,0,0,-3.5837,-1.3513,95.8822,-1.9805,175.9305,0.000,0.000,0.000,0.0000,0.0000,0.0000,0.0000,0.0000,0.0000,0
2026-04-17,08:25:45,17996,1,0.0000,0.0062,-0.0037,0.1098,-0.0152,0,1.0000,0,0,-3.6349,-1.4157,95.9403,-1.1515,175.9073,0.000,0.000,0.000,0.0000,0.0000,0.0000,0.0000,0.0000,0.0000,0
2026-04-17,08:25:45,18030,1,0.0000,-0.0009,-0.0026,0.0778,-0.0152,0,1.0000,0,0,-3.6305,0.4181,95.8884,-1.5995,175.8516,0.000,0.000,0.000,0.0000,0.0000,0.0000,0.0000,0.0000,0.0000,0
2026-04-17,08:25:45,18072,1,0.0000,0.0046,-0.0030,0.0884,-0.0152,0,1.0000,0,0,-3.5880,1.2314,95.8192,-1.6067,175.8497,0.000,0.000,0.000,0.0000,0.0000,0.0000,0.0000,0.0000,0.0000,0
2026-04-17,08:25:45,18115,1,0.0000,-0.0020,-0.0025,0.0743,-0.0152,0,1.0000,0,0,-3.5185,1.9922,95.7929,-1.0222,175.7965,0.000,0.000,0.000,0.0000,0.0000,0.0000,0.0000,0.0000,0.0000,0
2026-04-17,08:25:45,18157,1,0.0000,-0.0005,-0.0034,0.0992,-0.0152,0,1.0000,0,0,-3.4073,2.6199,95.8170,0.2916,175.7568,0.000,0.000,0.000,0.0000,0.0000,0.0000,0.0000,0.0000,0.0000,0
2026-04-17,08:25:45,18199,1,0.0000,-0.0014,-0.0036,0.1064,-0.0152,0,1.0000,0,0,-3.3821,0.8338,95.9017,1.3448,175.7803,0.000,0.000,0.000,0.0000,0.0000,0.0000,0.0000,0.0000,0.0000,0
2026-04-17,08:25:46,18242,1,0.0000,-0.0092,-0.0034,0.0992,-0.0152,0,1.0000,0,0,-3.3030,1.9757,95.9673,1.3470,175.9268,0.000,0.000,0.000,0.0000,0.0000,0.0000,0.0000,0.0000,0.0000,0
2026-04-17,08:25:46,18284,1,0.0000,-0.0077,-0.0034,0.0992,-0.0152,0,1.0000,0,0,-3.2381,1.2440,95.9439,-0.0536,175.9633,0.000,0.000,0.000,0.0000,0.0000,0.0000,0.0000,0.0000,0.0000,0
2026-04-17,08:25:46,18317,1,0.0000,-0.0012,-0.0032,0.0956,-0.0152,0,1.0000,0,0,-3.1820,1.7840,95.9350,0.0305,175.9874,0.000,0.000,0.000,0.0000,0.0000,0.0000,0.0000,0.0000,0.0000,0
2026-04-17,08:25:46,18360,1,0.0000,-0.0021,-0.0036,0.1062,-0.0152,0,1.0000,0,0,-3.1233,0.7950,96.1280,2.9839,175.8719,0.000,0.000,0.000,0.0000,0.0000,0.0000,0.0000,0.0000,0.0000,0
2026-04-17,08:25:46,18402,1,0.0000,0.0215,-0.0037,0.1098,-0.0152,0,1.0000,0,0,-3.3168,-6.0515,96.3052,3.6642,175.6355,0.000,0.000,0.000,0.0000,0.0000,0.0000,0.0000,0.0000,0.0000,0
2026-04-17,08:25:46,18444,1,0.0000,-0.0128,-0.0051,0.1488,-0.0152,0,1.0000,0,0,-3.9204,-15.6303,96.4768,4.1437,175.6828,0.000,0.000,0.000,0.0000,0.0000,0.0000,0.0000,0.0000,0.0000,0
2026-04-17,08:25:46,18486,1,0.0000,-0.0007,-0.0037,0.1100,-0.0152,0,1.0000,0,0,-4.5296,-13.6299,96.7297,5.0070,176.1063,0.000,0.000,0.000,0.0000,0.0000,0.0000,0.0000,0.0000,0.0000,0
2026-04-17,08:25:46,18529,1,0.0000,0.0045,-0.0041,0.1206,-0.0152,0,1.0000,0,0,-4.7764,-4.8677,96.5698,-1.1208,176.8175,0.000,0.000,0.000,0.0000,0.0000,0.0000,0.0000,0.0000,0.0000,0
2026-04-17,08:25:46,18570,1,0.0000,0.0051,-0.0047,0.1384,-0.0152,0,1.0000,0,0,-4.7098,2.9978,96.2898,-4.4432,170.9019,0.000,0.000,0.000,0.0000,0.0000,0.0000,0.0000,0.0000,0.0000,0
2026-04-17,08:25:46,18613,1,0.0000,-0.0123,-0.0027,0.0780,-0.0152,0,1.0000,0,0,-4.3218,10.1382,95.5824,-13.1994,172.3339,0.000,0.000,0.000,0.0000,0.0000,0.0000,0.0000,0.0000,0.0000,0
2026-04-17,08:25:46,18656,1,0.0000,0.0012,-0.0042,0.1241,-0.0152,0,1.0000,0,0,-3.7558,15.6484,94.3373,-23.3515,159.2212,0.000,0.000,0.000,0.0000,0.0000,0.0000,0.0000,0.0000,0.0000,0
2026-04-17,08:25:46,18698,1,0.0000,0.0173,-0.0036,0.1061,-0.0152,0,1.0000,0,0,-2.9515,20.9123,92.6723,-33.8796,108.4398,0.000,0.000,0.000,0.0000,0.0000,0.0000,0.0000,0.0000,0.0000,0
2026-04-17,08:25:46,18741,1,0.0000,-0.0073,-0.0041,0.1206,-0.0152,0,1.0000,0,0,-1.7807,29.2147,90.7642,-39.1699,105.7407,0.000,0.000,0.000,0.0000,0.0000,0.0000,0.0000,0.0000,0.0000,0
2026-04-17,08:25:46,18784,1,0.0000,0.0089,-0.0041,0.1204,-0.0152,0,1.0000,0,0,-1.0923,12.0165,89.3479,-33.0538,115.6331,0.000,0.000,0.000,0.0000,0.0000,0.0000,0.0000,0.0000,0.0000,0
2026-04-17,08:25:46,18826,1,0.0000,0.0014,-0.0048,0.1418,-0.0152,0,1.0000,0,0,-1.0948,0.3530,89.0342,-13.9043,123.8189,0.000,0.000,0.000,0.0000,0.0000,0.0000,0.0000,0.0000,0.0000,0
2026-04-17,08:25:46,18869,1,0.0000,-0.0019,-0.0039,0.1133,-0.0152,0,1.0000,0,0,-0.9830,2.0811,89.3812,0.7340,130.8432,0.000,0.000,0.000,0.0000,0.0000,0.0000,0.0000,0.0000,0.0000,0
2026-04-17,08:25:46,18903,1,0.0000,0.0037,-0.0034,0.0992,-0.0151,0,1.0000,0,0,-0.8027,3.3896,89.1502,-0.9956,132.6962,0.000,0.000,0.000,0.0000,0.0000,0.0000,0.0000,0.0000,0.0000,0
2026-04-17,08:25:46,18946,1,0.0000,0.0128,-0.0041,0.1203,-0.0152,0,1.0000,0,0,-0.8677,-1.4463,88.9604,-3.2393,139.2917,0.000,0.000,0.000,0.0000,0.0000,0.0000,0.0000,0.0000,0.0000,0
2026-04-17,08:25:46,18989,1,0.0000,-0.0083,-0.0036,0.1063,-0.0152,0,1.0000,0,0,-0.9909,-5.2807,88.3013,-10.8680,145.2161,0.000,0.000,0.000,0.0000,0.0000,0.0000,0.0000,0.0000,0.0000,0
2026-04-17,08:25:46,19022,1,0.0000,0.0065,-0.0047,0.1382,-0.0152,0,1.0000,0,0,-1.2017,-6.4925,87.6382,-15.4059,149.2848,0.000,0.000,0.000,0.0000,0.0000,0.0000,0.0000,0.0000,0.0000,0
2026-04-17,08:25:46,19064,1,0.0000,-0.0090,-0.0036,0.1062,-0.0152,0,1.0000,0,0,-1.1081,2.2171,86.9130,-15.5101,154.1132,0.000,0.000,0.000,0.0000,0.0000,0.0000,0.0000,0.0000,0.0000,0
2026-04-17,08:25:46,19107,1,0.0000,-0.0090,-0.0029,0.0850,-0.0151,0,1.0000,0,0,-0.9467,0.8887,85.8687,-20.9590,138.1576,0.000,0.000,0.000,0.0000,0.0000,0.0000,0.0000,0.0000,0.0000,0
2026-04-17,08:25:46,19151,1,0.0000,0.0261,-0.0003,0.0098,-0.0150,0,1.0000,0,0,-1.2465,-11.2134,84.4521,-26.6925,143.9274,0.000,0.000,0.000,0.0000,0.0000,0.0000,0.0000,0.0000,0.0000,0
2026-04-17,08:25:46,19194,1,0.0000,0.0212,-0.0027,0.0781,-0.0151,0,1.0000,0,0,-2.5557,-33.8579,84.6725,-3.1297,148.8047,0.000,0.000,0.000,0.0000,0.0000,0.0000,0.0000,0.0000,0.0000,0
2026-04-17,08:25:47,19227,1,0.0000,0.0033,-0.0037,0.1098,-0.0151,0,1.0000,0,0,-3.7975,-37.8797,85.1391,6.1796,152.7045,0.000,0.000,0.000,0.0000,0.0000,0.0000,0.0000,0.0000,0.0000,0
2026-04-17,08:25:47,19270,1,0.0000,-0.0089,-0.0030,0.0885,-0.0151,0,1.0000,0,0,-4.7395,-23.1682,84.7646,-4.4717,123.0277,0.000,0.000,0.000,0.0000,0.0000,0.0000,0.0000,0.0000,0.0000,0
2026-04-17,08:25:47,19313,1,0.0000,0.0011,-0.0033,0.0957,-0.0151,0,1.0000,0,0,-5.3973,-13.7419,83.2361,-24.9276,78.6874,0.000,0.000,0.000,0.0000,0.0000,0.0000,0.0000,0.0000,0.0000,0
2026-04-17,08:25:47,19356,1,0.0000,-0.0091,-0.0027,0.0779,-0.0151,0,1.0000,0,0,-5.7245,-7.4192,81.3106,-36.2129,61.8465,0.000,0.000,0.000,0.0000,0.0000,0.0000,0.0000,0.0000,0.0000,0
2026-04-17,08:25:47,19398,1,0.0000,0.0081,-0.0035,0.1028,-0.0152,0,1.0000,0,0,-5.8353,1.0689,79.8103,-34.4939,80.2989,0.000,0.000,0.000,0.0000,0.0000,0.0000,0.0000,0.0000,0.0000,0
2026-04-17,08:25:47,19431,1,0.0000,0.0215,-0.0049,0.1451,-0.0152,0,1.0000,0,0,-5.1637,21.2503,78.7016,-33.4512,64.7493,0.000,0.000,0.000,0.0000,0.0000,0.0000,0.0000,0.0000,0.0000,0
2026-04-17,08:25:47,19474,1,0.0000,0.0004,-0.0049,0.1454,-0.0152,0,1.0000,0,0,-3.3676,43.7761,76.7716,-41.0485,35.2603,0.000,0.000,0.000,0.0000,0.0000,0.0000,0.0000,0.0000,0.0000,0
2026-04-17,08:25:47,19517,1,0.0000,-0.0207,-0.0031,0.0921,-0.0152,0,1.0000,0,0,-1.2185,51.3557,74.0586,-54.0710,3.0307,0.000,0.000,0.000,0.0000,0.0000,0.0000,0.0000,0.0000,0.0000,0
2026-04-17,08:25:47,19560,1,0.0000,0.0006,-0.0030,0.0886,-0.0151,0,1.0000,0,0,0.7606,44.3392,71.2330,-59.2195,-17.4196,0.000,0.000,0.000,0.0000,0.0000,0.0000,0.0000,0.0000,0.0000,0
2026-04-17,08:25:47,19603,1,0.0000,-0.0196,-0.0025,0.0744,-0.0151,0,1.0000,0,0,1.7081,14.9566,68.6468,-56.7917,-41.7747,0.000,0.000,0.000,0.0000,0.0000,0.0000,0.0000,0.0000,0.0000,0
2026-04-17,08:25:47,19636,1,0.0000,-0.0142,-0.0027,0.0779,-0.0151,0,1.0000,0,0,1.5914,-6.2781,66.6295,-56.7541,-57.6054,0.000,0.000,0.000,0.0000,0.0000,0.0000,0.0000,0.0000,0.0000,0
2026-04-17,08:25:47,19679,1,0.0000,-0.0024,-0.0025,0.0744,-0.0151,0,1.0000,0,0,0.6322,-28.8507,64.0364,-55.2010,-75.9554,0.000,0.000,0.000,0.0000,0.0000,0.0000,0.0000,0.0000,0.0000,0
2026-04-17,08:25:47,19722,1,0.0000,0.0107,-0.0029,0.0850,-0.0152,0,1.0000,0,0,-0.5092,-31.1572,61.7115,-48.9782,-84.6647,0.000,0.000,0.000,0.0000,0.0000,0.0000,0.0000,0.0000,0.0000,0
2026-04-17,08:25:47,19765,1,0.0000,-0.0120,-0.0026,0.0779,-0.0151,0,1.0000,0,0,-1.6152,-32.2022,60.0009,-37.2591,-71.2366,0.000,0.000,0.000,0.0000,0.0000,0.0000,0.0000,0.0000,0.0000,0
2026-04-17,08:25:47,19799,1,0.0000,0.0080,-0.0036,0.1063,-0.0152,0,1.0000,0,0,-1.1704,-12.6137,57.1625,-47.3419,-61.5580,0.000,0.000,0.000,0.0000,0.0000,0.0000,0.0000,0.0000,0.0000,0
2026-04-17,08:25:47,19832,1,0.0000,0.0105,-0.0052,0.1525,-0.0152,0,1.0000,0,0,-2.1139,-28.7002,57.1403,-19.2313,-34.5315,0.000,0.000,0.000,0.0000,0.0000,0.0000,0.0000,0.0000,0.0000,0
2026-04-17,08:25:47,19875,1,0.0000,0.0177,-0.0057,0.1666,-0.0153,0,1.0000,0,0,-3.3067,-30.2363,57.6438,6.8486,-3.8878,0.000,0.000,0.000,0.0000,0.0000,0.0000,0.0000,0.0000,0.0000,0
2026-04-17,08:25:47,19917,1,0.0000,0.0051,-0.0040,0.1170,-0.0152,0,1.0000,0,0,-4.4769,-30.4821,59.2138,32.3415,21.7977,0.000,0.000,0.000,0.0000,0.0000,0.0000,0.0000,0.0000,0.0000,0
2026-04-17,08:25:47,19959,1,0.0000,0.0034,-0.0063,0.1838,-0.0153,0,1.0000,0,0,-5.5587,-29.0524,61.6891,52.4102,43.3746,0.000,0.000,0.000,0.0000,0.0000,0.0000,0.0000,0.0000,0.0000,0
2026-04-17,08:25:47,20002,1,0.0000,-0.0082,-0.0038,0.1132,-0.0152,0,1.0000,0,0,-6.5444,-24.0773,63.7184,50.3521,61.4438,0.000,0.000,0.000,0.0000,0.0000,0.0000,0.0000,0.0000,0.0000,0
2026-04-17,08:25:47,20035,1,0.0000,0.0006,-0.0053,0.1560,-0.0152,0,1.0000,0,0,-7.1334,-24.0861,64.6900,41.2846,73.1023,0.000,0.000,0.000,0.0000,0.0000,0.0000,0.0000,0.0000,0.0000,0
2026-04-17,08:25:47,20078,1,0.0000,-0.0071,-0.0060,0.1778,-0.0152,0,1.0000,0,0,-8.1187,-25.7883,65.5270,27.8672,86.5472,0.000,0.000,0.000,0.0000,0.0000,0.0000,0.0000,0.0000,0.0000,0
2026-04-17,08:25:47,20120,1,0.0000,0.0277,-0.0047,0.1382,-0.0152,0,1.0000,0,0,-9.5932,-35.3804,64.8876,1.1069,97.1748,0.000,0.000,0.000,0.0000,0.0000,0.0000,0.0000,0.0000,0.0000,0
2026-04-17,08:25:47,20163,1,0.0000,-0.0038,-0.0049,0.1454,-0.0152,0,1.0000,0,0,-11.2037,-37.1454,64.5687,-2.5199,106.9157,0.000,0.000,0.000,0.0000,0.0000,0.0000,0.0000,0.0000,0.0000,0
2026-04-17,08:25:47,20206,1,0.0000,0.0134,-0.0056,0.1660,-0.0153,0,1.0000,0,0,-12.3753,-25.8128,64.5246,-0.2302,115.5378,0.000,0.000,0.000,0.0000,0.0000,0.0000,0.0000,0.0000,0.0000,0
2026-04-17,08:25:48,20248,1,0.0000,0.0155,-0.0068,0.1992,-0.0153,0,1.0000,0,0,-12.9951,-11.6824,65.0214,8.7757,123.3838,0.000,0.000,0.000,0.0000,0.0000,0.0000,0.0000,0.0000,0.0000,0
2026-04-17,08:25:48,20291,1,0.0000,-0.0054,-0.0040,0.1171,-0.0153,0,1.0000,0,0,-12.4979,2.2340,65.7151,12.5977,129.6375,0.000,0.000,0.000,0.0000,0.0000,0.0000,0.0000,0.0000,0.0000,0
2026-04-17,08:25:48,20334,1,0.0000,-0.0053,-0.0053,0.1561,-0.0153,0,1.0000,0,0,-12.8281,-8.0025,66.0256,9.0427,134.8763,0.000,0.000,0.000,0.0000,0.0000,0.0000,0.0000,0.0000,0.0000,0
2026-04-17,08:25:48,20367,1,0.0000,-0.0003,-0.0070,0.2057,-0.0153,0,1.0000,0,0,-13.3611,-15.7847,66.3539,8.9565,138.3822,0.000,0.000,0.000,0.0000,0.0000,0.0000,0.0000,0.0000,0.0000,0
2026-04-17,08:25:48,20409,1,0.0000,-0.0129,-0.0057,0.1667,-0.0153,0,1.0000,0,0,-14.3067,-21.2572,66.5181,4.3246,142.6578,0.000,0.000,0.000,0.0000,0.0000,0.0000,0.0000,0.0000,0.0000,0
2026-04-17,08:25:48,20452,1,0.0000,-0.0071,-0.0058,0.1699,-0.0153,0,1.0000,0,0,-15.0622,-15.9480,66.4438,-1.0846,146.3380,0.000,0.000,0.000,0.0000,0.0000,0.0000,0.0000,0.0000,0.0000,0
2026-04-17,08:25:48,20494,1,0.0000,-0.0029,-0.0062,0.1813,-0.0153,0,1.0000,0,0,-15.3693,-4.0792,66.2471,-4.8698,149.5523,0.000,0.000,0.000,0.0000,0.0000,0.0000,0.0000,0.0000,0.0000,0
2026-04-17,08:25:48,20536,1,0.0000,0.0094,-0.0065,0.1919,-0.0153,0,1.0000,0,0,-15.2552,6.0189,65.9865,-7.0605,152.5418,0.000,0.000,0.000,0.0000,0.0000,0.0000,0.0000,0.0000,0.0000,0
2026-04-17,08:25:48,20569,1,0.0000,0.0126,-0.0059,0.1740,-0.0153,0,1.0000,0,0,-15.0054,10.7333,65.6304,-10.9490,154.6891,0.000,0.000,0.000,0.0000,0.0000,0.0000,0.0000,0.0000,0.0000,0
2026-04-17,08:25:48,20612,1,0.0000,-0.0020,-0.0059,0.1739,-0.0153,0,1.0000,0,0,-14.3060,21.0531,64.7270,-19.3177,157.1034,0.000,0.000,0.000,0.0000,0.0000,0.0000,0.0000,0.0000,0.0000,0
2026-04-17,08:25:48,20655,1,0.0000,0.0014,-0.0053,0.1561,-0.0153,0,1.0000,0,0,-13.2536,29.0136,63.8752,-21.0357,159.2945,0.000,0.000,0.000,0.0000,0.0000,0.0000,0.0000,0.0000,0.0000,0
2026-04-17,08:25:48,20698,1,0.0000,0.0065,-0.0061,0.1805,-0.0153,0,1.0000,0,0,-12.7598,27.7193,63.7862,-16.5774,160.2911,0.000,0.000,0.000,0.0000,0.0000,0.0000,0.0000,0.0000,0.0000,0
2026-04-17,08:25:48,20741,1,0.0000,0.0012,-0.0063,0.1845,-0.0153,0,1.0000,0,0,-11.1771,39.7119,63.0608,-18.1824,161.8588,0.000,0.000,0.000,0.0000,0.0000,0.0000,0.0000,0.0000,0.0000,0
2026-04-17,08:25:48,20774,1,0.0000,-0.0034,-0.0051,0.1495,-0.0153,0,1.0000,0,0,-9.9851,39.7326,62.4112,-20.1101,162.8885,0.000,0.000,0.000,0.0000,0.0000,0.0000,0.0000,0.0000,0.0000,0
2026-04-17,08:25:48,20817,1,0.0000,-0.0098,-0.0049,0.1455,-0.0153,0,1.0000,0,0,-8.6713,32.5310,61.5645,-20.6527,164.2004,0.000,0.000,0.000,0.0000,0.0000,0.0000,0.0000,0.0000,0.0000,0
2026-04-17,08:25:48,20860,1,0.0000,-0.0085,-0.0052,0.1540,-0.0153,0,1.0000,0,0,-7.7232,23.2595,60.9014,-18.0303,165.1997,0.000,0.000,0.000,0.0000,0.0000,0.0000,0.0000,0.0000,0.0000,0
2026-04-17,08:25:48,20903,1,0.0000,-0.0063,-0.0056,0.1634,-0.0153,0,1.0000,0,0,-7.0257,16.7302,60.2264,-17.0909,165.6733,0.000,0.000,0.000,0.0000,0.0000,0.0000,0.0000,0.0000,0.0000,0
2026-04-17,08:25:48,20946,1,0.0000,0.0002,-0.0054,0.1593,-0.0153,0,1.0000,0,0,-6.6451,8.6951,59.6571,-14.7129,166.2469,0.000,0.000,0.000,0.0000,0.0000,0.0000,0.0000,0.0000,0.0000,0
2026-04-17,08:25:48,20979,1,0.0000,-0.0088,-0.0060,0.1755,-0.0153,0,1.0000,0,0,-6.5048,4.8406,59.4194,-10.7884,166.4817,0.000,0.000,0.000,0.0000,0.0000,0.0000,0.0000,0.0000,0.0000,0
2026-04-17,08:25:48,21021,1,0.0000,0.0036,-0.0059,0.1740,-0.0153,0,1.0000,0,0,-6.4131,2.1875,59.2469,-6.6085,166.6145,0.000,0.000,0.000,0.0000,0.0000,0.0000,0.0000,0.0000,0.0000,0
2026-04-17,08:25:48,21064,1,0.0000,0.0071,-0.0056,0.1644,-0.0153,0,1.0000,0,0,-6.4124,0.3715,59.1631,-3.6571,166.8374,0.000,0.000,0.000,0.0000,0.0000,0.0000,0.0000,0.0000,0.0000,0
2026-04-17,08:25:48,21107,1,0.0000,-0.0158,-0.0048,0.1415,-0.0153,0,1.0000,0,0,-6.4675,-1.7147,59.2883,0.8417,167.0641,0.000,0.000,0.000,0.0000,0.0000,0.0000,0.0000,0.0000,0.0000,0
2026-04-17,08:25:48,21149,1,0.0000,-0.0034,-0.0052,0.1529,-0.0153,0,1.0000,0,0,-6.5213,-0.5205,59.5032,3.2278,167.2928,0.000,0.000,0.000,0.0000,0.0000,0.0000,0.0000,0.0000,0.0000,0
2026-04-17,08:25:48,21192,1,0.0000,0.0017,-0.0058,0.1708,-0.0153,0,1.0000,0,0,-6.5575,0.4191,59.4839,0.5972,167.6386,0.000,0.000,0.000,0.0000,0.0000,0.0000,0.0000,0.0000,0.0000,0
2026-04-17,08:25:49,21234,1,0.0000,0.0017,-0.0053,0.1561,-0.0153,0,1.0000,0,0,-6.4107,6.1316,59.5524,1.0151,168.0721,0.000,0.000,0.000,0.0000,0.0000,0.0000,0.0000,0.0000,0.0000,0
2026-04-17,08:25:49,21276,1,0.0000,-0.0048,-0.0060,0.1756,-0.0153,0,1.0000,0,0,-5.9873,12.2746,59.5332,-0.6038,168.4856,0.000,0.000,0.000,0.0000,0.0000,0.0000,0.0000,0.0000,0.0000,0
2026-04-17,08:25:49,21309,1,0.0000,0.0207,-0.0063,0.1846,-0.0153,0,1.0000,0,0,-5.6112,13.4706,59.4302,-2.3286,168.7003,0.000,0.000,0.000,0.0000,0.0000,0.0000,0.0000,0.0000,0.0000,0
2026-04-17,08:25:49,21352,1,0.0000,-0.0060,-0.0057,0.1667,-0.0153,0,1.0000,0,0,-5.0871,12.4951,59.4132,-1.2866,168.8761,0.000,0.000,0.000,0.0000,0.0000,0.0000,0.0000,0.0000,0.0000,0
2026-04-17,08:25:49,21395,1,0.0000,-0.0076,-0.0056,0.1634,-0.0153,0,1.0000,0,0,-4.6012,13.0663,59.2095,-4.3277,168.9767,0.000,0.000,0.000,0.0000,0.0000,0.0000,0.0000,0.0000,0.0000,0
2026-04-17,08:25:49,21428,1,0.0000,0.0023,-0.0053,0.1561,-0.0153,0,1.0000,0,0,-4.2353,11.6191,59.0102,-5.5807,169.1623,0.000,0.000,0.000,0.0000,0.0000,0.0000,0.0000,0.0000,0.0000,0
2026-04-17,08:25:49,21471,1,0.0000,0.0002,-0.0064,0.1886,-0.0153,0,1.0000,0,0,-3.9135,8.0000,58.8141,-5.1008,169.2436,0.000,0.000,0.000,0.0000,0.0000,0.0000,0.0000,0.0000,0.0000,0
2026-04-17,08:25:49,21513,1,0.0000,-0.0040,-0.0061,0.1805,-0.0153,0,1.0000,0,0,-3.7065,4.9474,58.6361,-4.6763,169.2554,0.000,0.000,0.000,0.0000,0.0000,0.0000,0.0000,0.0000,0.0000,0
2026-04-17,08:25:49,21556,1,0.0000,0.0070,-0.0061,0.1804,-0.0153,0,1.0000,0,0,-3.5706,3.2242,58.6370,-1.4547,169.3851,0.000,0.000,0.000,0.0000,0.0000,0.0000,0.0000,0.0000,0.0000,0
2026-04-17,08:25:49,21599,1,0.0000,-0.0144,-0.0051,0.1488,-0.0153,0,1.0000,0,0,-3.5644,1.4478,58.7265,-0.2525,169.3395,0.000,0.000,0.000,0.0000,0.0000,0.0000,0.0000,0.0000,0.0000,0
2026-04-17,08:25:49,21642,1,0.0000,-0.0037,-0.0058,0.1699,-0.0153,0,1.0000,0,0,-3.5140,1.3316,58.7744,0.5582,169.2010,0.000,0.000,0.000,0.0000,0.0000,0.0000,0.0000,0.0000,0.0000,0
2026-04-17,08:25:49,21675,1,0.0000,0.0007,-0.0054,0.1593,-0.0153,0,1.0000,0,0,-3.5086,0.5145,58.8343,1.1923,169.1553,0.000,0.000,0.000,0.0000,0.0000,0.0000,0.0000,0.0000,0.0000,0
2026-04-17,08:25:49,21717,1,0.0000,0.0087,-0.0063,0.1846,-0.0153,0,1.0000,0,0,-3.4843,0.6152,58.7934,-0.6233,169.0988,0.000,0.000,0.000,0.0000,0.0000,0.0000,0.0000,0.0000,0.0000,0
2026-04-17,08:25:49,21759,1,0.0000,0.0077,-0.0063,0.1846,-0.0153,0,1.0000,0,0,-3.4771,0.5041,58.6172,-3.3410,169.1211,0.000,0.000,0.000,0.0000,0.0000,0.0000,0.0000,0.0000,0.0000,0
2026-04-17,08:25:49,21802,1,0.0000,-0.0075,-0.0070,0.2057,-0.0153,0,1.0000,0,0,-3.4988,-0.1899,58.4601,-3.8236,169.1070,0.000,0.000,0.000,0.0000,0.0000,0.0000,0.0000,0.0000,0.0000,0
2026-04-17,08:25:49,21835,1,0.0000,-0.0009,-0.0070,0.2057,-0.0153,0,1.0000,0,0,-3.5167,-0.2819,58.3368,-3.9243,169.0802,0.000,0.000,0.000,0.0000,0.0000,0.0000,0.0000,0.0000,0.0000,0
2026-04-17,08:25:49,21879,1,0.0000,0.0047,-0.0057,0.1667,-0.0153,0,1.0000,0,0,-3.5480,-0.4813,58.1695,-3.9322,169.1249,0.000,0.000,0.000,0.0000,0.0000,0.0000,0.0000,0.0000,0.0000,0
2026-04-17,08:25:49,21921,1,0.0000,-0.0000,-0.0054,0.1593,-0.0153,0,1.0000,0,0,-3.5284,0.6921,58.0974,-2.5554,169.1291,0.000,0.000,0.000,0.0000,0.0000,0.0000,0.0000,0.0000,0.0000,0
2026-04-17,08:25:49,21963,1,0.0000,0.0035,-0.0063,0.1846,-0.0153,0,1.0000,0,0,-3.5095,0.4845,58.1133,-0.7433,169.3170,0.000,0.000,0.000,0.0000,0.0000,0.0000,0.0000,0.0000,0.0000,0
2026-04-17,08:25:49,22006,1,0.0000,-0.0038,-0.0067,0.1983,-0.0153,0,1.0000,0,0,-3.5232,-0.0223,58.2244,1.3692,169.4427,0.000,0.000,0.000,0.0000,0.0000,0.0000,0.0000,0.0000,0.0000,0
2026-04-17,08:25:49,22040,1,0.0000,-0.0016,-0.0076,0.2236,-0.0153,0,1.0000,0,0,-3.5408,0.0168,58.3267,1.9958,169.3687,0.000,0.000,0.000,0.0000,0.0000,0.0000,0.0000,0.0000,0.0000,0
2026-04-17,08:25:49,22082,1,0.0000,0.0052,-0.0074,0.2162,-0.0153,0,1.0000,0,0,-3.4066,3.6563,58.5341,3.8020,169.2537,0.000,0.000,0.000,0.0000,0.0000,0.0000,0.0000,0.0000,0.0000,0
2026-04-17,08:25:49,22124,1,0.0000,0.0001,-0.0079,0.2310,-0.0153,0,1.0000,0,0,-3.1406,6.9994,58.6437,2.9103,169.2860,0.000,0.000,0.000,0.0000,0.0000,0.0000,0.0000,0.0000,0.0000,0
2026-04-17,08:25:49,22166,1,0.0000,0.0063,-0.0074,0.2162,-0.0153,0,1.0000,0,0,-2.8640,6.5609,58.6276,0.4048,169.4666,0.000,0.000,0.000,0.0000,0.0000,0.0000,0.0000,0.0000,0.0000,0
2026-04-17,08:25:49,22208,1,0.0000,-0.0105,-0.0067,0.1983,-0.0153,0,1.0000,0,0,-2.6798,4.2409,58.5652,-0.9361,169.5233,0.000,0.000,0.000,0.0000,0.0000,0.0000,0.0000,0.0000,0.0000,0
2026-04-17,08:25:50,22251,1,0.0000,-0.0134,-0.0067,0.1983,-0.0153,0,1.0000,0,0,-2.6043,1.9237,58.5258,-0.9509,169.5352,0.000,0.000,0.000,0.0000,0.0000,0.0000,0.0000,0.0000,0.0000,0
2026-04-17,08:25:50,22292,1,0.0000,-0.0054,-0.0053,0.1561,-0.0153,0,1.0000,0,0,-2.5181,2.3711,58.4849,-1.0143,169.4229,0.000,0.000,0.000,0.0000,0.0000,0.0000,0.0000,0.0000,0.0000,0
2026-04-17,08:25:50,22334,1,0.0000,-0.0036,-0.0065,0.1919,-0.0153,0,1.0000,0,0,-2.4022,2.3788,58.5660,0.9056,169.2510,0.000,0.000,0.000,0.0000,0.0000,0.0000,0.0000,0.0000,0.0000,0
2026-04-17,08:25:50,22376,1,0.0000,0.0191,-0.0074,0.2162,-0.0153,0,1.0000,0,0,-2.4176,-1.1194,58.7264,2.7284,169.1288,0.000,0.000,0.000,0.0000,0.0000,0.0000,0.0000,0.0000,0.0000,0
2026-04-17,08:25:50,22409,1,0.0000,0.0050,-0.0065,0.1919,-0.0153,0,1.0000,0,0,-2.5190,-3.3399,58.8731,3.7471,169.1815,0.000,0.000,0.000,0.0000,0.0000,0.0000,0.0000,0.0000,0.0000,0
2026-04-17,08:25:50,22451,1,0.0000,0.0002,-0.0071,0.2089,-0.0153,0,1.0000,0,0,-2.6995,-4.6942,59.0292,3.7337,169.3677,0.000,0.000,0.000,0.0000,0.0000,0.0000,0.0000,0.0000,0.0000,0
2026-04-17,08:25:50,22485,1,0.0000,0.0022,-0.0063,0.1846,-0.0153,0,1.0000,0,0,-2.7874,-3.8023,59.1154,3.4596,169.4846,0.000,0.000,0.000,0.0000,0.0000,0.0000,0.0000,0.0000,0.0000,0
2026-04-17,08:25:50,22518,1,0.0000,-0.0105,-0.0047,0.1382,-0.0153,0,1.0000,0,0,-2.9472,-4.9490,59.1690,2.4218,169.7033,0.000,0.000,0.000,0.0000,0.0000,0.0000,0.0000,0.0000,0.0000,0
2026-04-17,08:25:50,22561,1,0.0000,0.0016,-0.0049,0.1446,-0.0153,0,1.0000,0,0,-3.2781,-8.3609,59.2584,2.0082,169.9769,0.000,0.000,0.000,0.0000,0.0000,0.0000,0.0000,0.0000,0.0000,0
2026-04-17,08:25:50,22603,1,0.0000,-0.0098,-0.0059,0.1740,-0.0153,0,1.0000,0,0,-3.6352,-7.6976,59.3683,2.3683,170.0194,0.000,0.000,0.000,0.0000,0.0000,0.0000,0.0000,0.0000,0.0000,0
2026-04-17,08:25:50,22644,1,0.0000,-0.0001,-0.0054,0.1594,-0.0153,0,1.0000,0,0,-3.6843,0.8228,59.5757,4.1431,170.0390,0.000,0.000,0.000,0.0000,0.0000,0.0000,0.0000,0.0000,0.0000,0
2026-04-17,08:25:50,22686,1,0.0000,-0.0044,-0.0062,0.1812,-0.0153,0,1.0000,0,0,-3.2613,11.4316,59.7814,4.3263,170.0696,0.000,0.000,0.000,0.0000,0.0000,0.0000,0.0000,0.0000,0.0000,0
2026-04-17,08:25:50,22719,1,0.0000,-0.0106,-0.0062,0.1812,-0.0153,0,1.0000,0,0,-2.8947,11.1928,59.8092,2.0281,170.0839,0.000,0.000,0.000,0.0000,0.0000,0.0000,0.0000,0.0000,0.0000,0
2026-04-17,08:25:50,22762,1,0.0000,-0.0086,-0.0047,0.1382,-0.0153,0,1.0000,0,0,-2.6765,4.2243,59.5685,-3.0770,170.2336,0.000,0.000,0.000,0.0000,0.0000,0.0000,0.0000,0.0000,0.0000,0
2026-04-17,08:25:50,22804,1,0.0000,-0.0173,-0.0043,0.1276,-0.0152,0,1.0000,0,0,-2.7796,-2.6334,59.5184,-2.0310,170.6544,0.000,0.000,0.000,0.0000,0.0000,0.0000,0.0000,0.0000,0.0000,0
2026-04-17,08:25:50,22837,1,0.0000,-0.0008,-0.0041,0.1204,-0.0152,0,1.0000,0,0,-2.9367,-5.4463,59.5301,-0.7977,170.9996,0.000,0.000,0.000,0.0000,0.0000,0.0000,0.0000,0.0000,0.0000,0
2026-04-17,08:25:50,22878,1,0.0000,0.0056,-0.0040,0.1170,-0.0152,0,1.0000,0,0,-3.4041,-12.8249,59.5560,-0.1040,171.7879,0.000,0.000,0.000,0.0000,0.0000,0.0000,0.0000,0.0000,0.0000,0
2026-04-17,08:25:50,22921,1,0.0000,-0.0033,-0.0043,0.1276,-0.0152,0,1.0000,0,0,-4.1441,-17.9952,59.4595,-2.2552,172.7750,0.000,0.000,0.000,0.0000,0.0000,0.0000,0.0000,0.0000,0.0000,0
2026-04-17,08:25:50,22964,1,0.0000,-0.0019,-0.0040,0.1170,-0.0152,0,1.0000,0,0,-4.6932,-11.5582,59.4320,-1.6147,173.3264,0.000,0.000,0.000,0.0000,0.0000,0.0000,0.0000,0.0000,0.0000,0
2026-04-17,08:25:50,23007,1,0.0000,0.0049,-0.0040,0.1167,-0.0152,0,1.0000,0,0,-4.7034,1.9721,59.2683,-3.7113,173.8221,0.000,0.000,0.000,0.0000,0.0000,0.0000,0.0000,0.0000,0.0000,0
2026-04-17,08:25:50,23048,1,0.0000,0.0071,-0.0041,0.1204,-0.0152,0,1.0000,0,0,-4.0561,17.6245,58.8061,-9.5234,174.4301,0.000,0.000,0.000,0.0000,0.0000,0.0000,0.0000,0.0000,0.0000,0
2026-04-17,08:25:50,23091,1,0.0000,-0.0094,-0.0048,0.1419,-0.0152,0,1.0000,0,0,-3.5156,13.7586,58.1566,-14.3069,174.9170,0.000,0.000,0.000,0.0000,0.0000,0.0000,0.0000,0.0000,0.0000,0
2026-04-17,08:25:50,23134,1,0.0000,-0.0074,-0.0033,0.0958,-0.0152,0,1.0000,0,0,-3.2561,8.3982,57.2962,-18.6967,175.4478,0.000,0.000,0.000,0.0000,0.0000,0.0000,0.0000,0.0000,0.0000,0
2026-04-17,08:25:50,23177,1,0.0000,-0.0166,-0.0018,0.0531,-0.0152,0,1.0000,0,0,-3.0658,5.5053,56.4517,-20.3780,176.0817,0.000,0.000,0.000,0.0000,0.0000,0.0000,0.0000,0.0000,0.0000,0
2026-04-17,08:25:51,23220,1,0.0000,0.0019,-0.0045,0.1310,-0.0152,0,1.0000,0,0,-2.6351,14.4550,55.3162,-24.8840,176.8163,0.000,0.000,0.000,0.0000,0.0000,0.0000,0.0000,0.0000,0.0000,0
2026-04-17,08:25:51,23262,1,0.0000,0.0039,-0.0049,0.1454,-0.0152,0,1.0000,0,0,-1.5241,27.7667,53.8227,-32.9070,149.7476,0.000,0.000,0.000,0.0000,0.0000,0.0000,0.0000,0.0000,0.0000,0
2026-04-17,08:25:51,23305,1,0.0000,-0.0100,-0.0039,0.1135,-0.0152,0,1.0000,0,0,-0.4763,25.1945,51.6497,-44.7632,121.4850,0.000,0.000,0.000,0.0000,0.0000,0.0000,0.0000,0.0000,0.0000,0
2026-04-17,08:25:51,23338,1,0.0000,-0.0048,-0.0040,0.1172,-0.0152,0,1.0000,0,0,0.2295,21.6548,49.8265,-50.0890,128.1246,0.000,0.000,0.000,0.0000,0.0000,0.0000,0.0000,0.0000,0.0000,0
2026-04-17,08:25:51,23375,1,0.0000,0.0036,-0.0047,0.1382,-0.0152,0,1.0000,0,0,0.8383,16.4113,47.6596,-50.6560,131.0991,0.000,0.000,0.000,0.0000,0.0000,0.0000,0.0000,0.0000,0.0000,0
2026-04-17,08:25:51,23418,1,0.0000,-0.0069,-0.0034,0.0992,-0.0152,0,1.0000,0,0,1.0967,4.8122,45.6608,-46.5867,138.1996,0.000,0.000,0.000,0.0000,0.0000,0.0000,0.0000,0.0000,0.0000,0
2026-04-17,08:25:51,23461,1,0.0000,0.0035,-0.0036,0.1064,-0.0152,0,1.0000,0,0,0.9437,-5.0231,43.7207,-44.7105,144.3631,0.000,0.000,0.000,0.0000,0.0000,0.0000,0.0000,0.0000,0.0000,0
2026-04-17,08:25:51,23504,1,0.0000,-0.0110,-0.0035,0.1027,-0.0152,0,1.0000,0,0,0.6407,-7.6013,41.5043,-48.2785,129.0078,0.000,0.000,0.000,0.0000,0.0000,0.0000,0.0000,0.0000,0.0000,0
2026-04-17,08:25:51,23547,1,0.0000,0.0065,-0.0048,0.1416,-0.0152,0,1.0000,0,0,0.4731,-5.0238,38.9499,-53.7845,136.4574,0.000,0.000,0.000,0.0000,0.0000,0.0000,0.0000,0.0000,0.0000,0
