Date,Time,Timestamp_ms,Kite_ID,Commanded_Vel_rps,Actual_Vel_rps,Torque_Nm,Tension_N,Line_Length_m,Target_Enabled,Target_Length_m,Remote_Joy,Remote_Active,Pitch_deg,Pitch_Vel_dps,Yaw_deg,Yaw_Vel_dps,Roll_deg,Dive_Conf,AWW_Conf,AF_Conf,Kite_Pitch_deg,Kite_Roll_deg,Kite_Yaw_deg,Kite_Gyro_X,Kite_Gyro_Y,Kite_Gyro_Z,Kite_IMU_Battery
2026-04-17,08:27:13,0,1,0.0000,0.0039,0.0108,0.3166,1.1440,0,1.0000,0,0,9.3102,-13.4709,-3.2997,-27.7485,149.5428,0.000,0.000,0.540,0.0000,0.0000,0.0000,0.0000,0.0000,0.0000,0
2026-04-17,08:27:13,1,1,0.0000,-0.0010,0.0112,0.3289,1.1440,0,1.0000,0,0,9.2223,-7.1357,-4.6232,-31.6984,151.0348,0.000,0.000,0.570,0.0000,0.0000,0.0000,0.0000,0.0000,0.0000,0
2026-04-17,08:27:13,2,1,0.0000,-0.0057,0.0119,0.3501,1.1440,0,1.0000,0,0,9.1778,-3.7813,-6.0224,-34.6903,152.4358,0.000,0.000,0.600,0.0000,0.0000,0.0000,0.0000,0.0000,0.0000,0
2026-04-17,08:27:13,2,1,0.0000,-0.0016,0.0118,0.3469,1.1440,0,1.0000,0,0,9.1012,-3.1778,-7.4093,-36.5972,153.7878,0.000,0.000,0.630,0.0000,0.0000,0.0000,0.0000,0.0000,0.0000,0
2026-04-17,08:27:13,3,1,0.0000,-0.0038,0.0109,0.3197,1.1440,0,1.0000,0,0,8.9822,-3.4558,-8.7674,-38.0634,155.1328,0.000,0.000,0.660,0.0000,0.0000,0.0000,0.0000,0.0000,0.0000,0
2026-04-17,08:27:13,3,1,0.0000,0.0049,0.0102,0.2987,1.1440,0,1.0000,0,0,8.8632,-3.4521,-10.2418,-39.3707,156.4694,0.000,0.000,0.679,0.0000,0.0000,0.0000,0.0000,0.0000,0.0000,0
2026-04-17,08:27:13,4,1,0.0000,0.0083,0.0108,0.3167,1.1440,0,1.0000,0,0,8.6993,-4.3422,-11.6875,-41.2597,157.7748,0.000,0.000,0.709,0.0000,0.0000,0.0000,0.0000,0.0000,0.0000,0
2026-04-17,08:27:13,5,1,0.0000,-0.0086,0.0124,0.3649,1.1440,0,1.0000,0,0,8.5761,-3.9519,-13.4313,-44.5458,159.0168,0.000,0.000,0.728,0.0000,0.0000,0.0000,0.0000,0.0000,0.0000,0
2026-04-17,08:27:13,5,1,0.0000,0.0053,0.0108,0.3184,1.1440,0,1.0000,0,0,8.4457,-3.9211,-15.3938,-49.3591,160.1668,0.000,0.000,0.758,0.0000,0.0000,0.0000,0.0000,0.0000,0.0000,0
2026-04-17,08:27:13,6,1,0.0000,0.0010,0.0123,0.3618,1.1440,0,1.0000,0,0,8.3366,-3.6019,-17.7423,-55.7993,161.2186,0.000,0.000,0.788,0.0000,0.0000,0.0000,0.0000,0.0000,0.0000,0
2026-04-17,08:27:13,7,1,0.0000,-0.0157,0.0120,0.3544,1.1440,0,1.0000,0,0,8.2205,-3.7290,-20.4947,-64.8674,162.1541,0.000,0.000,0.818,0.0000,0.0000,0.0000,0.0000,0.0000,0.0000,0
2026-04-17,08:27:13,7,1,0.0000,-0.0033,0.0125,0.3680,1.1440,0,1.0000,0,0,8.1114,-3.7017,-23.7337,-74.8451,162.9883,0.000,0.000,0.848,0.0000,0.0000,0.0000,0.0000,0.0000,0.0000,0
2026-04-17,08:27:13,8,1,0.0000,0.0032,0.0123,0.3618,1.1440,0,1.0000,0,0,7.9616,-4.0570,-27.3610,-85.0360,163.7475,0.000,0.000,0.878,0.0000,0.0000,0.0000,0.0000,0.0000,0.0000,0
2026-04-17,08:27:13,8,1,0.0000,-0.0203,0.0120,0.3525,1.1440,0,1.0000,0,0,7.7313,-5.9273,-31.2257,-96.5763,164.4393,0.000,0.000,0.908,0.0000,0.0000,0.0000,0.0000,0.0000,0.0000,0
2026-04-17,08:27:13,10,1,0.0000,0.0027,0.0120,0.3544,1.1440,0,1.0000,0,0,7.5019,-6.3631,-35.6651,-107.4343,165.0957,0.000,0.000,0.927,0.0000,0.0000,0.0000,0.0000,0.0000,0.0000,0
2026-04-17,08:27:13,11,1,0.0000,-0.0122,0.0124,0.3649,1.1440,0,1.0000,0,0,7.2328,-6.1154,-41.9890,-123.4157,165.9762,0.000,0.000,0.967,0.0000,0.0000,0.0000,0.0000,0.0000,0.0000,0
2026-04-17,08:27:13,12,1,0.0000,0.0026,0.0114,0.3364,1.1440,0,1.0000,0,0,7.0709,-5.3414,-47.1351,-133.8522,166.6318,0.000,0.000,0.997,0.0000,0.0000,0.0000,0.0000,0.0000,0.0000,0
2026-04-17,08:27:13,12,1,0.0000,0.0117,0.0116,0.3421,1.1440,0,1.0000,0,0,7.0048,-3.3284,-52.6689,-143.3219,167.2342,0.000,0.000,1.000,0.0000,0.0000,0.0000,0.0000,0.0000,0.0000,0
2026-04-17,08:27:13,13,1,0.0000,0.0105,0.0115,0.3377,1.1440,0,1.0000,0,0,6.9832,-1.6655,-58.4383,-151.6914,167.7662,0.000,0.000,1.000,0.0000,0.0000,0.0000,0.0000,0.0000,0.0000,0
2026-04-17,08:27:13,14,1,0.0000,0.0034,0.0115,0.3390,1.1440,0,1.0000,0,0,6.9834,-0.7873,-64.3827,-157.6320,168.2691,0.000,0.000,1.000,0.0000,0.0000,0.0000,0.0000,0.0000,0.0000,0
2026-04-17,08:27:13,14,1,0.0000,0.0105,0.0114,0.3364,1.1440,0,1.0000,0,0,6.9359,-1.2687,-70.2586,-162.6936,168.7681,0.000,0.000,1.000,0.0000,0.0000,0.0000,0.0000,0.0000,0.0000,0
2026-04-17,08:27:13,15,1,0.0000,0.0042,0.0118,0.3469,1.1440,0,1.0000,0,0,6.8080,-2.6857,-76.0922,-167.1127,169.2728,0.000,0.000,1.000,0.0000,0.0000,0.0000,0.0000,0.0000,0.0000,0
2026-04-17,08:27:13,16,1,0.0000,0.0115,0.0107,0.3153,1.1440,0,1.0000,0,0,6.6469,-3.9440,-82.1226,-167.4927,169.7467,0.000,0.000,1.000,0.0000,0.0000,0.0000,0.0000,0.0000,0.0000,0
2026-04-17,08:27:13,16,1,0.0000,-0.0023,0.0121,0.3556,1.1440,0,1.0000,0,0,6.4064,-6.0510,-87.8598,-169.7432,170.2009,0.000,0.000,1.000,0.0000,0.0000,0.0000,0.0000,0.0000,0.0000,0
2026-04-17,08:27:13,17,1,0.0000,-0.0052,0.0118,0.3482,1.1440,0,1.0000,0,0,6.1536,-7.1925,-93.3718,-169.1357,170.6154,0.000,0.000,1.000,0.0000,0.0000,0.0000,0.0000,0.0000,0.0000,0
2026-04-17,08:27:13,18,1,0.0000,0.0107,0.0104,0.3048,1.1440,0,1.0000,0,0,5.8729,-7.7783,-98.7136,-165.1901,170.9955,0.000,0.000,1.000,0.0000,0.0000,0.0000,0.0000,0.0000,0.0000,0
2026-04-17,08:27:13,19,1,0.0000,-0.0125,0.0115,0.3395,1.1440,0,1.0000,0,0,5.5488,-9.0161,-103.6390,-159.9861,171.3287,0.000,0.000,1.000,0.0000,0.0000,0.0000,0.0000,0.0000,0.0000,0
2026-04-17,08:27:13,19,1,0.0000,0.0039,0.0103,0.3017,1.1440,0,1.0000,0,0,5.1978,-10.0074,-108.1836,-150.8557,171.6298,0.000,0.000,1.000,0.0000,0.0000,0.0000,0.0000,0.0000,0.0000,0
2026-04-17,08:27:13,20,1,0.0000,0.0096,0.0113,0.3333,1.1440,0,1.0000,0,0,4.7847,-11.2609,-112.2666,-140.9142,171.9379,0.000,0.060,0.998,0.0000,0.0000,0.0000,0.0000,0.0000,0.0000,0
2026-04-17,08:27:13,20,1,0.0000,0.0003,0.0113,0.3333,1.1440,0,1.0000,0,0,4.3373,-12.5479,-116.0287,-132.3500,172.2464,0.000,0.120,0.995,0.0000,0.0000,0.0000,0.0000,0.0000,0.0000,0
2026-04-17,08:27:13,21,1,0.0000,0.0112,0.0104,0.3048,1.1440,0,1.0000,0,0,3.9232,-12.3730,-119.5884,-123.6124,172.5228,0.000,0.180,0.992,0.0000,0.0000,0.0000,0.0000,0.0000,0.0000,0
2026-04-17,08:27:13,22,1,0.0000,0.0037,0.0118,0.3469,1.1440,0,1.0000,0,0,3.5156,-12.5050,-122.8723,-116.0854,172.7594,0.000,0.240,0.989,0.0000,0.0000,0.0000,0.0000,0.0000,0.0000,0
2026-04-17,08:27:13,23,1,0.0000,0.0062,0.0112,0.3302,1.1440,0,1.0000,0,0,3.0654,-13.0712,-125.6503,-104.9715,173.0865,0.000,0.300,0.986,0.0000,0.0000,0.0000,0.0000,0.0000,0.0000,0
2026-04-17,08:27:13,24,1,0.0000,-0.0230,0.0116,0.3407,1.1440,0,1.0000,0,0,2.4168,-16.5518,-127.2006,-85.2437,152.5157,0.000,0.360,0.983,0.0000,0.0000,0.0000,0.0000,0.0000,0.0000,0
2026-04-17,08:27:13,25,1,0.0000,0.0086,0.0113,0.3320,1.1440,0,1.0000,0,0,1.5060,-22.9277,-127.2600,-58.2920,133.1885,0.000,0.420,0.980,0.0000,0.0000,0.0000,0.0000,0.0000,0.0000,0
2026-04-17,08:27:13,25,1,0.0000,-0.0004,0.0103,0.3017,1.1440,0,1.0000,0,0,0.4084,-27.0399,-126.2083,-30.9042,121.8296,0.000,0.480,0.977,0.0000,0.0000,0.0000,0.0000,0.0000,0.0000,0
2026-04-17,08:27:13,26,1,0.0000,0.0032,0.0124,0.3661,1.1440,0,1.0000,0,0,-0.7780,-31.4152,-123.9994,-0.5069,104.5645,0.000,0.540,0.974,0.0000,0.0000,0.0000,0.0000,0.0000,0.0000,0
2026-04-17,08:27:13,27,1,0.0000,-0.0113,0.0130,0.3829,1.1440,0,1.0000,0,0,-2.0915,-35.8491,-120.2069,35.7628,88.4593,0.000,0.570,0.971,0.0000,0.0000,0.0000,0.0000,0.0000,0.0000,0
2026-04-17,08:27:13,27,1,0.0000,-0.0398,0.0153,0.4498,1.1441,0,1.0000,0,0,-3.5225,-40.0885,-113.3337,91.3665,73.8532,0.000,0.540,0.968,0.0000,0.0000,0.0000,0.0000,0.0000,0.0000,0
2026-04-17,08:27:13,28,1,0.0000,-0.0910,0.0280,0.8244,1.1447,0,1.0000,0,0,-3.7931,-18.3923,-105.8035,126.7079,78.5401,0.020,0.510,0.965,0.0000,0.0000,0.0000,0.0000,0.0000,0.0000,0
2026-04-17,08:27:13,29,1,0.0000,0.0190,0.0210,0.6173,1.1446,0,1.0000,0,0,-3.0066,4.9215,-108.6344,58.1899,82.6635,0.000,0.480,0.962,0.0000,0.0000,0.0000,0.0000,0.0000,0.0000,0
2026-04-17,08:27:13,29,1,0.0000,-0.0079,0.0239,0.7033,1.1446,0,1.0000,0,0,-3.5508,-8.9363,-111.1800,18.2477,74.8111,0.000,0.450,0.959,0.0000,0.0000,0.0000,0.0000,0.0000,0.0000,0
2026-04-17,08:27:13,30,1,0.0000,0.0432,0.0177,0.5210,1.1444,0,1.0000,0,0,-5.4328,-35.2238,-106.2829,59.1886,61.7649,0.000,0.420,0.956,0.0000,0.0000,0.0000,0.0000,0.0000,0.0000,0
2026-04-17,08:27:13,31,1,0.0000,-0.0292,0.0214,0.6282,1.1445,0,1.0000,0,0,-5.6258,-17.4475,-98.8702,107.6942,63.4478,0.000,0.390,0.953,0.0000,0.0000,0.0000,0.0000,0.0000,0.0000,0
2026-04-17,08:27:13,58,1,0.0000,0.0147,0.0204,0.6001,1.1445,0,1.0000,0,0,-6.5120,-22.5789,-94.4152,112.8129,70.9730,0.000,0.360,0.950,0.0000,0.0000,0.0000,0.0000,0.0000,0.0000,0
2026-04-17,08:27:13,60,1,0.0000,-0.0080,0.0210,0.6174,1.1445,0,1.0000,0,0,-6.5536,-8.9887,-92.8117,91.6662,70.8728,0.000,0.330,0.947,0.0000,0.0000,0.0000,0.0000,0.0000,0.0000,0
2026-04-17,08:27:13,61,1,0.0000,-0.0059,0.0204,0.6001,1.1445,0,1.0000,0,0,-6.2904,0.7661,-90.3456,86.4230,57.4683,0.000,0.300,0.944,0.0000,0.0000,0.0000,0.0000,0.0000,0.0000,0
2026-04-17,08:27:13,61,1,0.0000,-0.0057,0.0204,0.5986,1.1445,0,1.0000,0,0,-5.8379,8.0770,-85.9127,99.3746,44.6942,0.000,0.270,0.941,0.0000,0.0000,0.0000,0.0000,0.0000,0.0000,0
2026-04-17,08:27:13,62,1,0.0000,0.0028,0.0196,0.5760,1.1445,0,1.0000,0,0,-5.2366,13.8980,-81.4375,110.7510,31.8603,0.000,0.240,0.938,0.0000,0.0000,0.0000,0.0000,0.0000,0.0000,0
2026-04-17,08:27:13,63,1,0.0000,0.0044,0.0193,0.5679,1.1445,0,1.0000,0,0,-4.8732,11.3137,-78.0502,105.0734,33.2482,0.000,0.210,0.935,0.0000,0.0000,0.0000,0.0000,0.0000,0.0000,0
2026-04-17,08:27:13,63,1,0.0000,0.0019,0.0193,0.5679,1.1445,0,1.0000,0,0,-4.5581,10.4549,-75.3905,97.3756,20.2816,0.000,0.180,0.932,0.0000,0.0000,0.0000,0.0000,0.0000,0.0000,0
2026-04-17,08:27:13,64,1,0.0000,0.0065,0.0200,0.5894,1.1445,0,1.0000,0,0,-3.9161,15.9350,-72.1951,97.1858,8.1965,0.000,0.150,0.929,0.0000,0.0000,0.0000,0.0000,0.0000,0.0000,0
2026-04-17,08:27:13,64,1,0.0000,0.0011,0.0200,0.5878,1.1445,0,1.0000,0,0,-3.0024,22.5858,-68.7134,99.8531,18.0701,0.000,0.120,0.926,0.0000,0.0000,0.0000,0.0000,0.0000,0.0000,0
2026-04-17,08:27:13,65,1,0.0000,0.0120,0.0183,0.5384,1.1445,0,1.0000,0,0,-2.7797,12.2892,-65.2247,100.9301,27.5516,0.000,0.090,0.923,0.0000,0.0000,0.0000,0.0000,0.0000,0.0000,0
2026-04-17,08:27:13,66,1,0.0000,0.0057,0.0179,0.5279,1.1444,0,1.0000,0,0,-2.7670,5.0150,-60.7983,101.5770,11.6366,0.000,0.050,0.919,0.0000,0.0000,0.0000,0.0000,0.0000,0.0000,0
2026-04-17,08:27:13,67,1,0.8720,0.0074,0.0193,0.5668,1.1444,0,1.0000,109,1,-2.2258,10.9682,-57.2804,101.4018,0.8352,0.000,0.020,0.916,0.0000,0.0000,0.0000,0.0000,0.0000,0.0000,0
2026-04-17,08:27:13,67,1,0.8720,0.8481,0.0647,1.9020,1.1403,0,1.0000,109,1,-2.3070,2.5033,-52.5533,112.1448,-9.2665,0.000,0.000,0.913,0.0000,0.0000,0.0000,0.0000,0.0000,0.0000,0
2026-04-17,08:27:13,68,1,0.8720,0.9790,0.0467,1.3728,1.1331,0,1.0000,109,1,-1.9690,7.5148,-48.7988,109.3152,1.6178,0.000,0.000,0.910,0.0000,0.0000,0.0000,0.0000,0.0000,0.0000,0
2026-04-17,08:27:13,69,1,1.2960,0.9735,0.0456,1.3413,1.1258,0,1.0000,162,1,-1.2176,15.5223,-46.4735,96.8627,4.8252,0.000,0.000,0.907,0.0000,0.0000,0.0000,0.0000,0.0000,0.0000,0
2026-04-17,08:27:13,69,1,1.2960,1.3665,0.0577,1.6964,1.1173,0,1.0000,162,1,-1.6549,-2.3221,-43.9243,89.9310,-5.7218,0.000,0.000,0.904,0.0000,0.0000,0.0000,0.0000,0.0000,0.0000,0
2026-04-17,08:27:13,70,1,1.2960,1.2063,0.0642,1.8885,1.1078,0,1.0000,162,1,-2.5268,-15.8190,-41.1761,87.9944,-15.4731,0.000,0.000,0.901,0.0000,0.0000,0.0000,0.0000,0.0000,0.0000,0
2026-04-17,08:27:13,70,1,1.3200,1.4593,0.0436,1.2820,1.0986,0,1.0000,165,1,-2.5760,-6.6266,-38.5577,84.5498,-24.5218,0.000,0.000,0.898,0.0000,0.0000,0.0000,0.0000,0.0000,0.0000,0
2026-04-17,08:27:13,72,1,1.3200,1.3015,0.0561,1.6495,1.0889,0,1.0000,165,1,-2.3693,0.1908,-36.1724,79.2370,-33.1068,0.000,0.000,0.895,0.0000,0.0000,0.0000,0.0000,0.0000,0.0000,0
2026-04-17,08:27:13,73,1,1.3200,1.2004,0.0586,1.7243,1.0785,0,1.0000,165,1,-2.5901,-3.5537,-34.2283,71.5958,-41.3516,0.000,0.000,0.892,0.0000,0.0000,0.0000,0.0000,0.0000,0.0000,0
2026-04-17,08:27:13,74,1,1.3040,1.3138,0.0430,1.2662,0.7691,0,1.0000,163,1,-2.0981,-3.4606,-9.4264,10.2024,-149.6355,0.000,0.000,0.798,0.0000,0.0000,0.0000,0.0000,0.0000,0.0000,0
2026-04-17,08:27:13,74,1,1.3040,1.1962,0.0432,1.2694,0.7565,0,1.0000,163,1,-2.0053,0.4871,-8.8619,11.9275,-152.2379,0.000,0.000,0.795,0.0000,0.0000,0.0000,0.0000,0.0000,0.0000,0
2026-04-17,08:27:13,95,1,1.3040,1.2652,0.0374,1.0987,0.7441,0,1.0000,163,1,-2.1708,-6.7834,-8.2902,13.9730,-155.0292,0.000,0.000,0.792,0.0000,0.0000,0.0000,0.0000,0.0000,0.0000,0
2026-04-17,08:27:13,132,1,1.3040,1.4865,0.0251,0.7377,0.7336,0,1.0000,163,1,-2.2542,-3.6927,-8.0493,12.7121,-156.2562,0.000,0.000,0.790,0.0000,0.0000,0.0000,0.0000,0.0000,0.0000,0
2026-04-17,08:27:13,166,1,1.3040,1.2000,0.0411,1.2087,0.7243,0,1.0000,163,1,-2.2984,-1.4075,-7.5908,13.4730,-158.5873,0.000,0.000,0.787,0.0000,0.0000,0.0000,0.0000,0.0000,0.0000,0
2026-04-17,08:27:13,209,1,1.3040,1.0915,0.0484,1.4243,0.7123,0,1.0000,163,1,-2.2398,2.6745,-6.9494,14.5583,-161.2615,0.000,0.000,0.783,0.0000,0.0000,0.0000,0.0000,0.0000,0.0000,0
2026-04-17,08:27:13,253,1,1.3040,1.5016,0.0249,0.7320,0.7000,0,1.0000,163,1,-2.3163,-2.6399,-6.6046,10.0488,-163.7600,0.000,0.000,0.779,0.0000,0.0000,0.0000,0.0000,0.0000,0.0000,0
2026-04-17,08:27:13,297,1,1.3040,1.3617,0.0358,1.0527,0.6882,0,1.0000,163,1,-2.6381,-6.8116,-6.3944,6.5154,-165.5993,0.000,0.000,0.775,0.0000,0.0000,0.0000,0.0000,0.0000,0.0000,0
2026-04-17,08:27:13,340,1,1.3040,1.2819,0.0495,1.4569,0.6763,0,1.0000,163,1,-2.8811,-3.8738,-6.5712,-0.7468,-167.0897,0.000,0.000,0.771,0.0000,0.0000,0.0000,0.0000,0.0000,0.0000,0
2026-04-17,08:27:14,374,1,1.3040,1.1867,0.0446,1.3122,0.6664,0,1.0000,163,1,-2.8447,-0.5491,-6.6286,-1.6731,-168.0762,0.000,0.000,0.768,0.0000,0.0000,0.0000,0.0000,0.0000,0.0000,0
2026-04-17,08:27:14,417,1,1.3040,1.3718,0.0364,1.0702,0.6543,0,1.0000,163,1,-2.7535,0.8897,-6.7907,-3.4292,-169.2160,0.000,0.000,0.764,0.0000,0.0000,0.0000,0.0000,0.0000,0.0000,0
2026-04-17,08:27:14,450,1,1.3120,1.3649,0.0455,1.3369,0.6458,0,1.0000,164,1,-2.9939,-7.9908,-6.7834,-1.4355,-169.9054,0.000,0.000,0.761,0.0000,0.0000,0.0000,0.0000,0.0000,0.0000,0
2026-04-17,08:27:14,483,1,1.3120,1.1937,0.0439,1.2916,0.6359,0,1.0000,164,1,-3.1336,-3.6872,-6.8106,-1.5658,-170.6303,0.000,0.000,0.758,0.0000,0.0000,0.0000,0.0000,0.0000,0.0000,0
2026-04-17,08:27:14,526,1,1.3120,1.3504,0.0427,1.2549,0.6240,0,1.0000,164,1,-2.9655,6.6526,-6.9496,-2.4424,-171.4864,0.000,0.000,0.754,0.0000,0.0000,0.0000,0.0000,0.0000,0.0000,0
2026-04-17,08:27:14,560,1,1.3120,1.3825,0.0488,1.4349,0.6156,0,1.0000,164,1,-3.0365,-1.0743,-6.8181,1.0992,-172.1016,0.000,0.000,0.751,0.0000,0.0000,0.0000,0.0000,0.0000,0.0000,0
2026-04-17,08:27:14,593,1,1.3120,1.2172,0.0425,1.2503,0.6050,0,1.0000,164,1,-2.9686,1.6095,-6.5349,5.6684,-172.6832,0.000,0.000,0.748,0.0000,0.0000,0.0000,0.0000,0.0000,0.0000,0
2026-04-17,08:27:14,626,1,1.3120,1.4153,0.0334,0.9833,0.5958,0,1.0000,164,1,-2.7615,6.2797,-6.1033,10.1405,-173.0851,0.000,0.000,0.745,0.0000,0.0000,0.0000,0.0000,0.0000,0.0000,0
2026-04-17,08:27:14,669,1,1.3120,1.3481,0.0477,1.4032,0.5843,0,1.0000,164,1,-2.6512,0.9763,-5.2837,17.2467,-173.5948,0.000,0.000,0.741,0.0000,0.0000,0.0000,0.0000,0.0000,0.0000,0
2026-04-17,08:27:14,712,1,1.3120,1.1679,0.0494,1.4532,0.5718,0,1.0000,164,1,-2.6891,-0.8973,-4.6684,15.5775,-174.0067,0.000,0.000,0.737,0.0000,0.0000,0.0000,0.0000,0.0000,0.0000,0
2026-04-17,08:27:14,755,1,1.3120,1.1978,0.0473,1.3901,0.5598,0,1.0000,164,1,-2.7007,-0.8337,-4.4529,8.3992,-174.3524,0.000,0.000,0.733,0.0000,0.0000,0.0000,0.0000,0.0000,0.0000,0
2026-04-17,08:27:14,788,1,1.3120,1.4433,0.0337,0.9921,0.5506,0,1.0000,164,1,-2.6705,2.3204,-4.4173,4.4774,-174.5256,0.000,0.000,0.730,0.0000,0.0000,0.0000,0.0000,0.0000,0.0000,0
2026-04-17,08:27:14,821,1,1.3120,1.1911,0.0501,1.4729,0.5414,0,1.0000,164,1,-2.7230,-1.9555,-4.3174,3.8520,-174.6541,0.000,0.000,0.727,0.0000,0.0000,0.0000,0.0000,0.0000,0.0000,0
2026-04-17,08:27:14,864,1,1.3120,1.1602,0.0509,1.4973,0.5293,0,1.0000,164,0,-2.7635,-1.7495,-3.9486,7.8674,-174.8685,0.000,0.000,0.723,0.0000,0.0000,0.0000,0.0000,0.0000,0.0000,0
2026-04-17,08:27:14,907,1,1.3120,1.4185,0.0316,0.9285,0.5169,0,1.0000,164,0,-2.5820,5.1536,-3.2346,14.1639,-175.1046,0.000,0.000,0.719,0.0000,0.0000,0.0000,0.0000,0.0000,0.0000,0
2026-04-17,08:27:14,950,1,1.3120,1.3682,0.0381,1.1220,0.5053,0,1.0000,164,0,-2.6052,1.3873,-2.7365,12.2422,-175.2842,0.000,0.000,0.715,0.0000,0.0000,0.0000,0.0000,0.0000,0.0000,0
2026-04-17,08:27:14,983,1,1.3120,1.1476,0.0548,1.6123,0.4981,0,1.0000,164,0,-2.6424,0.3151,-2.6635,9.9832,-175.3164,0.000,0.000,0.713,0.0000,0.0000,0.0000,0.0000,0.0000,0.0000,0
2026-04-17,08:27:14,1025,1,1.3120,1.2667,0.0380,1.1188,0.4837,0,1.0000,164,0,-2.4820,5.4150,-2.6131,4.1338,-175.4485,0.000,0.000,0.709,0.0000,0.0000,0.0000,0.0000,0.0000,0.0000,0
2026-04-17,08:27:14,1068,1,1.3120,1.4067,0.0393,1.1551,0.4720,0,1.0000,164,0,-2.4305,1.7267,-3.1297,-8.3481,-175.6239,0.000,0.000,0.705,0.0000,0.0000,0.0000,0.0000,0.0000,0.0000,0
2026-04-17,08:27:14,1111,1,1.3120,1.4274,0.0377,1.1096,0.4603,0,1.0000,164,0,-2.5008,-1.3652,-3.7325,-11.8205,-175.7135,0.000,0.000,0.701,0.0000,0.0000,0.0000,0.0000,0.0000,0.0000,0
2026-04-17,08:27:14,1144,1,1.3120,1.2055,0.0495,1.4565,0.4508,0,1.0000,164,0,-2.4486,0.8912,-3.9071,-9.0376,-175.7429,0.000,0.000,0.698,0.0000,0.0000,0.0000,0.0000,0.0000,0.0000,0
2026-04-17,08:27:14,1187,1,1.3120,1.2582,0.0435,1.2798,0.4386,0,1.0000,164,0,-2.4497,-0.2596,-4.5832,-14.6126,-175.8649,0.000,0.000,0.694,0.0000,0.0000,0.0000,0.0000,0.0000,0.0000,0
2026-04-17,08:27:14,1220,1,1.3120,1.3792,0.0389,1.1434,0.4299,0,1.0000,164,0,-2.6161,-4.9148,-5.0258,-14.2196,-175.9027,0.000,0.000,0.691,0.0000,0.0000,0.0000,0.0000,0.0000,0.0000,0
2026-04-17,08:27:14,1263,1,1.3120,1.2897,0.0454,1.3345,0.4176,0,1.0000,164,0,-2.6253,0.4157,-5.3653,-10.7692,-175.8996,0.000,0.000,0.687,0.0000,0.0000,0.0000,0.0000,0.0000,0.0000,0
2026-04-17,08:27:14,1306,1,1.3120,1.1597,0.0572,1.6812,0.4057,0,1.0000,164,0,-2.7106,-1.2597,-5.6304,-7.2336,-175.9822,0.000,0.000,0.683,0.0000,0.0000,0.0000,0.0000,0.0000,0.0000,0
2026-04-17,08:27:14,1349,1,1.3120,1.3193,0.0331,0.9728,0.3930,0,1.0000,164,0,-2.6868,1.4763,-5.3210,2.7373,-176.0469,0.000,0.000,0.679,0.0000,0.0000,0.0000,0.0000,0.0000,0.0000,0
2026-04-17,08:27:15,1382,1,1.3040,1.3484,0.0434,1.2758,0.3844,0,1.0000,163,1,-2.7618,-2.3208,-4.9485,7.4759,-176.0601,0.000,0.000,0.676,0.0000,0.0000,0.0000,0.0000,0.0000,0.0000,0
2026-04-17,08:27:15,1426,1,1.3040,1.2639,0.0509,1.4984,0.3725,0,1.0000,163,1,-2.7681,-1.0133,-4.4987,9.7036,-176.0343,0.000,0.000,0.672,0.0000,0.0000,0.0000,0.0000,0.0000,0.0000,0
2026-04-17,08:27:15,1469,1,1.3040,1.1835,0.0474,1.3942,0.3596,0,1.0000,163,1,-2.7634,0.5922,-3.9144,13.0879,-176.0687,0.000,0.000,0.668,0.0000,0.0000,0.0000,0.0000,0.0000,0.0000,0
2026-04-17,08:27:15,1503,1,1.3040,1.4008,0.0374,1.0993,0.3501,0,1.0000,163,1,-2.7422,0.6095,-3.6077,11.3037,-176.0852,0.000,0.000,0.665,0.0000,0.0000,0.0000,0.0000,0.0000,0.0000,0
2026-04-17,08:27:15,1536,1,1.3040,1.2857,0.0489,1.4379,0.3414,0,1.0000,163,1,-2.7581,0.7717,-3.0655,14.5716,-176.0966,0.000,0.000,0.662,0.0000,0.0000,0.0000,0.0000,0.0000,0.0000,0
2026-04-17,08:27:15,1580,1,1.3040,1.1992,0.0474,1.3950,0.3291,0,1.0000,163,1,-2.8200,-1.4750,-2.5037,13.5745,-176.0860,0.000,0.000,0.658,0.0000,0.0000,0.0000,0.0000,0.0000,0.0000,0
2026-04-17,08:27:15,1614,1,1.3040,1.3719,0.0360,1.0600,0.3190,0,1.0000,163,1,-2.7428,3.6131,-2.2490,10.5720,-176.0902,0.000,0.000,0.655,0.0000,0.0000,0.0000,0.0000,0.0000,0.0000,0
2026-04-17,08:27:15,1657,1,1.3040,1.4341,0.0335,0.9859,0.3074,0,1.0000,163,1,-2.7723,-0.4225,-2.0937,5.5883,-176.0856,0.000,0.000,0.651,0.0000,0.0000,0.0000,0.0000,0.0000,0.0000,0
2026-04-17,08:27:15,1691,1,1.3040,1.2042,0.0471,1.3861,0.2981,0,1.0000,163,1,-2.8287,-2.4819,-2.3221,-1.4271,-176.1042,0.000,0.000,0.648,0.0000,0.0000,0.0000,0.0000,0.0000,0.0000,0
2026-04-17,08:27:15,1734,1,1.3040,1.1846,0.0460,1.3517,0.2857,0,1.0000,163,1,-2.8824,-0.6679,-2.9364,-11.0928,-176.1522,0.000,0.000,0.644,0.0000,0.0000,0.0000,0.0000,0.0000,0.0000,0
2026-04-17,08:27:15,1777,1,1.3040,1.4762,0.0292,0.8585,0.2735,0,1.0000,163,1,-2.8757,1.9378,-3.4777,-12.5577,-176.1929,0.000,0.000,0.640,0.0000,0.0000,0.0000,0.0000,0.0000,0.0000,0
2026-04-17,08:27:15,1811,1,1.3040,1.2518,0.0461,1.3547,0.2646,0,1.0000,163,1,-2.9422,-2.6151,-3.7593,-10.6827,-176.2357,0.000,0.000,0.637,0.0000,0.0000,0.0000,0.0000,0.0000,0.0000,0
2026-04-17,08:27:15,1844,1,1.3040,1.3579,0.0319,0.9387,0.2570,0,1.0000,163,1,-2.9653,-1.7781,-3.8630,-9.0063,-176.2663,0.000,0.000,0.635,0.0000,0.0000,0.0000,0.0000,0.0000,0.0000,0
2026-04-17,08:27:15,1889,1,1.3040,1.4885,0.0312,0.9169,0.2430,0,1.0000,163,1,-2.8806,2.7900,-4.1026,-6.7101,-176.2303,0.000,0.000,0.631,0.0000,0.0000,0.0000,0.0000,0.0000,0.0000,0
2026-04-17,08:27:15,1922,1,1.3040,1.2782,0.0443,1.3040,0.2334,0,1.0000,163,1,-2.9589,-1.2210,-4.2590,-5.9460,-176.2320,0.000,0.000,0.628,0.0000,0.0000,0.0000,0.0000,0.0000,0.0000,0
2026-04-17,08:27:15,1965,1,1.3040,1.1895,0.0493,1.4509,0.2217,0,1.0000,163,1,-2.9895,-1.2995,-4.7290,-9.9992,-176.2050,0.000,0.000,0.624,0.0000,0.0000,0.0000,0.0000,0.0000,0.0000,0
2026-04-17,08:27:15,1999,1,1.3040,1.3999,0.0309,0.9079,0.2118,0,1.0000,163,1,-2.8854,3.0484,-4.8184,-5.7836,-176.1607,0.000,0.000,0.621,0.0000,0.0000,0.0000,0.0000,0.0000,0.0000,0
2026-04-17,08:27:15,2042,1,1.3040,1.4481,0.0294,0.8660,0.2002,0,1.0000,163,1,-2.9985,-1.3744,-4.6322,0.9632,-176.1487,0.000,0.000,0.617,0.0000,0.0000,0.0000,0.0000,0.0000,0.0000,0
2026-04-17,08:27:15,2085,1,1.3040,1.3289,0.0438,1.2871,0.1883,0,1.0000,163,1,-3.0154,0.9125,-4.3311,4.9206,-176.1299,0.000,0.000,0.613,0.0000,0.0000,0.0000,0.0000,0.0000,0.0000,0
2026-04-17,08:27:15,2119,1,1.3040,1.1760,0.0403,1.1856,0.1782,0,1.0000,163,1,-2.8775,3.4867,-4.1779,4.6830,-176.1676,0.000,0.000,0.610,0.0000,0.0000,0.0000,0.0000,0.0000,0.0000,0
2026-04-17,08:27:15,2152,1,1.3040,1.4161,0.0311,0.9135,0.1692,0,1.0000,163,1,-2.8911,0.3023,-4.0176,5.1767,-176.1851,0.000,0.000,0.607,0.0000,0.0000,0.0000,0.0000,0.0000,0.0000,0
2026-04-17,08:27:15,2196,1,1.3040,1.3214,0.0428,1.2574,0.1575,0,1.0000,163,1,-2.8525,-0.1878,-3.6140,8.3074,-176.2435,0.000,0.000,0.603,0.0000,0.0000,0.0000,0.0000,0.0000,0.0000,0
2026-04-17,08:27:15,2229,1,1.3040,1.2419,0.0352,1.0348,0.1474,0,1.0000,163,1,-2.8199,-0.6100,-3.2155,10.5288,-176.2771,0.000,0.000,0.600,0.0000,0.0000,0.0000,0.0000,0.0000,0.0000,0
2026-04-17,08:27:15,2272,1,1.3040,1.4077,0.0294,0.8646,0.1355,0,1.0000,163,1,-2.7691,3.3559,-2.9888,7.2216,-176.2175,0.000,0.000,0.596,0.0000,0.0000,0.0000,0.0000,0.0000,0.0000,0
2026-04-17,08:27:15,2305,1,1.3040,1.3061,0.0420,1.2357,0.1270,0,1.0000,163,1,-2.8081,-1.0343,-2.8432,5.7779,-176.1224,0.000,0.000,0.593,0.0000,0.0000,0.0000,0.0000,0.0000,0.0000,0
2026-04-17,08:27:15,2348,1,1.3040,1.1868,0.0444,1.3060,0.1145,0,1.0000,163,1,-2.7661,0.6436,-2.6118,5.7736,-176.0958,0.000,0.000,0.589,0.0000,0.0000,0.0000,0.0000,0.0000,0.0000,0
2026-04-17,08:27:16,2391,1,1.3040,1.1963,0.0412,1.2114,0.1025,0,1.0000,163,1,-2.7976,-0.1840,-2.1747,9.3393,-176.0849,0.000,0.000,0.585,0.0000,0.0000,0.0000,0.0000,0.0000,0.0000,0
2026-04-17,08:27:16,2426,1,1.3200,1.4560,0.0238,0.7008,0.0929,0,1.0000,165,1,-2.9041,-1.9797,-1.9799,7.1450,-176.1215,0.000,0.000,0.582,0.0000,0.0000,0.0000,0.0000,0.0000,0.0000,0
2026-04-17,08:27:16,2459,1,1.3120,1.2266,0.0430,1.2633,0.0837,0,1.0000,164,1,-2.8210,0.9769,-2.0339,1.9540,-176.1353,0.000,0.000,0.579,0.0000,0.0000,0.0000,0.0000,0.0000,0.0000,0
2026-04-17,08:27:16,2493,1,1.3040,1.3683,0.0267,0.7846,0.0739,0,1.0000,163,1,-2.7381,2.1946,-2.3572,-4.4319,-176.1563,0.000,0.000,0.576,0.0000,0.0000,0.0000,0.0000,0.0000,0.0000,0
2026-04-17,08:27:16,2526,1,1.3040,1.3349,0.0459,1.3506,0.0652,0,1.0000,163,1,-2.8253,-1.6889,-2.9130,-12.1851,-176.1753,0.000,0.000,0.573,0.0000,0.0000,0.0000,0.0000,0.0000,0.0000,0
2026-04-17,08:27:16,2569,1,1.3040,1.2193,0.0402,1.1825,0.0528,0,1.0000,163,1,-2.7897,-0.7217,-3.7598,-17.7225,-176.1808,0.000,0.000,0.569,0.0000,0.0000,0.0000,0.0000,0.0000,0.0000,0
2026-04-17,08:27:16,2604,1,1.3040,1.3092,0.0337,0.9911,0.0428,0,1.0000,163,1,-2.7774,0.4795,-4.3546,-18.1535,-176.1886,0.000,0.000,0.566,0.0000,0.0000,0.0000,0.0000,0.0000,0.0000,0
2026-04-17,08:27:16,2639,1,1.3040,1.3511,0.0419,1.2317,0.0339,0,1.0000,163,1,-2.7628,0.8278,-4.8824,-16.8794,-176.1674,0.000,0.000,0.563,0.0000,0.0000,0.0000,0.0000,0.0000,0.0000,0
2026-04-17,08:27:16,2683,1,1.3040,1.2843,0.0409,1.2022,0.0213,0,1.0000,163,1,-2.7467,-0.8056,-5.1808,-13.8339,-176.1306,0.000,0.000,0.560,0.0000,0.0000,0.0000,0.0000,0.0000,0.0000,0
2026-04-17,08:27:16,2716,1,1.3040,1.2660,0.0349,1.0261,0.0116,0,1.0000,163,1,-2.7494,-1.3453,-5.5546,-12.5784,-176.1347,0.000,0.000,0.557,0.0000,0.0000,0.0000,0.0000,0.0000,0.0000,0
2026-04-17,08:27:16,2759,1,1.3120,1.4765,0.0234,0.6878,-0.0005,0,1.0000,164,1,-2.8065,-0.1054,-5.8283,-8.4853,-176.1452,0.000,0.000,0.553,0.0000,0.0000,0.0000,0.0000,0.0000,0.0000,0
2026-04-17,08:27:16,2793,1,1.3120,-0.2244,0.0022,0.0648,-0.0053,0,1.0000,164,1,-3.1116,-15.7369,-5.7298,-2.3885,-176.1947,0.000,0.000,0.550,0.0000,0.0000,0.0000,0.0000,0.0000,0.0000,0
2026-04-17,08:27:16,2828,1,1.3040,-0.0049,0.0146,0.4283,-0.0048,0,1.0000,163,1,-3.3080,-5.3635,-6.1053,-7.9103,-176.1278,0.000,0.000,0.547,0.0000,0.0000,0.0000,0.0000,0.0000,0.0000,0
2026-04-17,08:27:16,2861,1,1.3120,-0.0064,0.0153,0.4501,-0.0048,0,1.0000,164,1,-3.2554,1.3441,-6.5108,-10.2691,-175.9702,0.000,0.000,0.544,0.0000,0.0000,0.0000,0.0000,0.0000,0.0000,0
2026-04-17,08:27:16,2894,1,1.3040,-0.0019,0.0141,0.4150,-0.0048,0,1.0000,163,1,-3.0246,7.3108,-6.8022,-9.7384,-175.9621,0.000,0.000,0.541,0.0000,0.0000,0.0000,0.0000,0.0000,0.0000,0
2026-04-17,08:27:16,2927,1,1.3040,-0.0011,0.0140,0.4112,-0.0048,0,1.0000,163,1,-2.8367,5.6311,-7.0575,-8.9355,-176.1369,0.000,0.000,0.538,0.0000,0.0000,0.0000,0.0000,0.0000,0.0000,0
2026-04-17,08:27:16,2960,1,1.3040,0.0015,0.0130,0.3829,-0.0048,0,1.0000,163,1,-2.7366,3.5232,-7.3884,-9.9143,-176.3494,0.000,0.000,0.535,0.0000,0.0000,0.0000,0.0000,0.0000,0.0000,0
2026-04-17,08:27:16,2994,1,1.3040,0.0008,0.0136,0.4000,-0.0048,0,1.0000,163,1,-2.6660,2.1684,-7.8057,-11.1397,-176.5275,0.000,0.000,0.532,0.0000,0.0000,0.0000,0.0000,0.0000,0.0000,0
2026-04-17,08:27:16,3038,1,1.3120,0.0098,0.0122,0.3579,-0.0048,0,1.0000,164,1,-2.6459,0.5353,-8.0332,-7.2485,-176.6099,0.000,0.000,0.528,0.0000,0.0000,0.0000,0.0000,0.0000,0.0000,0
2026-04-17,08:27:16,3071,1,1.3040,-0.0044,0.0135,0.3963,-0.0048,0,1.0000,163,1,-2.6055,1.3735,-8.0828,-3.8280,-176.5305,0.000,0.000,0.525,0.0000,0.0000,0.0000,0.0000,0.0000,0.0000,0
2026-04-17,08:27:16,3104,1,1.3040,0.0044,0.0131,0.3867,-0.0048,0,1.0000,163,1,-2.5451,1.9943,-7.9241,0.9267,-176.4341,0.000,0.000,0.522,0.0000,0.0000,0.0000,0.0000,0.0000,0.0000,0
2026-04-17,08:27:16,3137,1,1.3040,-0.0010,0.0123,0.3616,-0.0048,0,1.0000,163,1,-2.5493,-0.2072,-8.0427,-2.1853,-176.3592,0.000,0.000,0.519,0.0000,0.0000,0.0000,0.0000,0.0000,0.0000,0
2026-04-17,08:27:16,3181,1,1.3120,-0.0045,0.0141,0.4144,-0.0048,0,1.0000,164,1,-2.4975,1.6852,-8.2914,-4.5445,-176.3209,0.000,0.000,0.515,0.0000,0.0000,0.0000,0.0000,0.0000,0.0000,0
2026-04-17,08:27:16,3215,1,1.3040,0.0021,0.0145,0.4251,-0.0048,0,1.0000,163,1,-2.5036,-0.4950,-8.3139,-2.4536,-176.3640,0.000,0.000,0.512,0.0000,0.0000,0.0000,0.0000,0.0000,0.0000,0
2026-04-17,08:27:16,3250,1,1.3120,0.0097,0.0137,0.4042,-0.0048,0,1.0000,164,1,-2.6430,-3.7062,-8.3449,-1.5501,-176.4337,0.000,0.000,0.509,0.0000,0.0000,0.0000,0.0000,0.0000,0.0000,0
2026-04-17,08:27:16,3283,1,1.2960,-0.0138,0.0151,0.4432,-0.0048,0,1.0000,162,1,-2.7021,-0.8545,-8.4801,-2.8520,-176.4990,0.000,0.000,0.506,0.0000,0.0000,0.0000,0.0000,0.0000,0.0000,0
2026-04-17,08:27:16,3326,1,0.9920,-0.0073,0.0136,0.4001,-0.0048,0,1.0000,124,1,-2.4333,6.4460,-8.4798,-0.6065,-176.3251,0.000,0.000,0.502,0.0000,0.0000,0.0000,0.0000,0.0000,0.0000,0
2026-04-17,08:27:17,3370,1,0.1280,0.0074,0.0126,0.3719,-0.0049,0,1.0000,16,1,-2.2492,4.7992,-8.5524,-1.5854,-176.3094,0.000,0.000,0.498,0.0000,0.0000,0.0000,0.0000,0.0000,0.0000,0
2026-04-17,08:27:17,3403,1,0.0000,0.0034,0.0131,0.3862,-0.0048,0,1.0000,0,1,-2.1178,3.6164,-8.6296,-2.1240,-176.3430,0.000,0.000,0.495,0.0000,0.0000,0.0000,0.0000,0.0000,0.0000,0
2026-04-17,08:27:17,3438,1,0.0000,-0.0006,0.0125,0.3685,-0.0048,0,1.0000,0,1,-2.0709,1.2387,-8.5683,0.0034,-176.3906,0.000,0.000,0.492,0.0000,0.0000,0.0000,0.0000,0.0000,0.0000,0
2026-04-17,08:27:17,3481,1,0.0000,0.0018,0.0125,0.3685,-0.0048,0,1.0000,0,1,-2.0612,-0.2376,-8.5349,0.4318,-176.4392,0.000,0.000,0.489,0.0000,0.0000,0.0000,0.0000,0.0000,0.0000,0
2026-04-17,08:27:17,3514,1,0.0000,-0.0120,0.0141,0.4149,-0.0048,0,1.0000,0,1,-2.1186,-1.3693,-8.3122,3.9601,-176.4218,0.000,0.000,0.486,0.0000,0.0000,0.0000,0.0000,0.0000,0.0000,0
2026-04-17,08:27:17,3557,1,0.0000,0.0015,0.0127,0.3723,-0.0048,0,1.0000,0,1,-2.2438,-3.3031,-8.2073,2.6863,-176.3852,0.000,0.000,0.482,0.0000,0.0000,0.0000,0.0000,0.0000,0.0000,0
2026-04-17,08:27:17,3602,1,0.0000,-0.0046,0.0124,0.3648,-0.0048,0,1.0000,0,1,-2.3571,-2.4446,-8.4412,-2.4882,-176.3017,0.000,0.000,0.478,0.0000,0.0000,0.0000,0.0000,0.0000,0.0000,0
2026-04-17,08:27:17,3635,1,0.0000,0.0004,0.0142,0.4173,-0.0048,0,1.0000,0,1,-2.4389,-2.1259,-8.5831,-3.6918,-176.2577,0.000,0.000,0.475,0.0000,0.0000,0.0000,0.0000,0.0000,0.0000,0
2026-04-17,08:27:17,3669,1,0.0000,-0.0022,0.0143,0.4219,-0.0048,0,1.0000,0,1,-2.5372,-2.7515,-8.8631,-6.3818,-176.2559,0.000,0.000,0.472,0.0000,0.0000,0.0000,0.0000,0.0000,0.0000,0
2026-04-17,08:27:17,3703,1,0.0000,0.0087,0.0130,0.3831,-0.0049,0,1.0000,0,1,-2.6887,-4.6253,-9.3650,-11.3317,-176.3534,0.000,0.000,0.469,0.0000,0.0000,0.0000,0.0000,0.0000,0.0000,0
2026-04-17,08:27:17,3736,1,0.0000,0.0042,0.0124,0.3650,-0.0049,0,1.0000,0,1,-2.8019,-3.2300,-10.0808,-17.2449,-176.5907,0.000,0.000,0.466,0.0000,0.0000,0.0000,0.0000,0.0000,0.0000,0
2026-04-17,08:27:17,3780,1,0.0000,0.0135,0.0105,0.3082,-0.0050,0,1.0000,0,1,-2.7021,3.0545,-11.4784,-27.0103,-176.8392,0.000,0.000,0.462,0.0000,0.0000,0.0000,0.0000,0.0000,0.0000,0
2026-04-17,08:27:17,3823,1,0.0000,0.0017,0.0109,0.3192,-0.0050,0,1.0000,0,1,-2.3489,8.9448,-13.1248,-34.2752,-177.0062,0.000,0.000,0.458,0.0000,0.0000,0.0000,0.0000,0.0000,0.0000,0
2026-04-17,08:27:17,3866,1,0.0000,-0.0067,0.0121,0.3544,-0.0050,0,1.0000,0,1,-1.8441,11.9714,-14.7874,-37.2869,-177.1089,0.000,0.000,0.454,0.0000,0.0000,0.0000,0.0000,0.0000,0.0000,0
2026-04-17,08:27:17,3909,1,0.0000,-0.0052,0.0121,0.3544,-0.0050,0,1.0000,0,1,-1.4736,8.4451,-16.4941,-39.4755,-177.2040,0.000,0.000,0.450,0.0000,0.0000,0.0000,0.0000,0.0000,0.0000,0
2026-04-17,08:27:17,3952,1,0.0000,0.0007,0.0112,0.3294,-0.0050,0,1.0000,0,1,-1.4237,-0.2744,-18.6689,-47.9330,-177.3652,0.000,0.000,0.446,0.0000,0.0000,0.0000,0.0000,0.0000,0.0000,0
2026-04-17,08:27:17,3985,1,0.0000,0.0213,0.0090,0.2658,-0.0051,0,1.0000,0,1,-1.6220,-5.7403,-20.6623,-56.0503,-143.0766,0.000,0.000,0.443,0.0000,0.0000,0.0000,0.0000,0.0000,0.0000,0
2026-04-17,08:27:17,4028,1,0.0000,0.0066,0.0080,0.2342,-0.0051,0,1.0000,0,0,-1.8323,-5.5629,-23.6137,-63.8111,-109.1079,0.000,0.000,0.439,0.0000,0.0000,0.0000,0.0000,0.0000,0.0000,0
2026-04-17,08:27:17,4071,1,0.0000,-0.0009,0.0100,0.2943,-0.0051,0,1.0000,0,0,-1.8564,-1.3098,-27.0547,-76.6366,-107.0168,0.000,0.000,0.435,0.0000,0.0000,0.0000,0.0000,0.0000,0.0000,0
2026-04-17,08:27:17,4114,1,0.0000,-0.0017,0.0088,0.2594,-0.0051,0,1.0000,0,0,-1.7363,1.3410,-32.2919,-109.8769,-111.1335,0.000,0.000,0.431,0.0000,0.0000,0.0000,0.0000,0.0000,0.0000,0
2026-04-17,08:27:17,4157,1,0.0000,0.0043,0.0093,0.2732,-0.0051,0,1.0000,0,0,-1.5505,2.6444,-39.7512,-157.7583,-107.6168,0.000,0.000,0.427,0.0000,0.0000,0.0000,0.0000,0.0000,0.0000,0
2026-04-17,08:27:17,4190,1,0.0000,0.0126,0.0084,0.2479,-0.0051,0,1.0000,0,0,-1.4315,2.4037,-47.3464,-200.7509,-88.0415,0.000,0.000,0.424,0.0000,0.0000,0.0000,0.0000,0.0000,0.0000,0
2026-04-17,08:27:17,4233,1,0.0000,-0.0075,0.0099,0.2911,-0.0051,0,1.0000,0,0,-1.4582,-3.3045,-59.2158,-258.7385,-48.2973,0.000,0.000,0.420,0.0000,0.0000,0.0000,0.0000,0.0000,0.0000,0
2026-04-17,08:27:17,4276,1,0.0000,0.0002,0.0078,0.2300,-0.0051,0,1.0000,0,0,-1.6867,-9.0823,-72.4578,-299.9460,-14.5444,0.000,0.000,0.416,0.0000,0.0000,0.0000,0.0000,0.0000,0.0000,0
2026-04-17,08:27:17,4319,1,0.0000,-0.0132,0.0095,0.2805,-0.0051,0,1.0000,0,0,-2.0744,-12.9451,-86.1223,-321.2584,14.1342,0.000,0.000,0.412,0.0000,0.0000,0.0000,0.0000,0.0000,0.0000,0
2026-04-17,08:27:18,4354,1,0.0000,0.0087,0.0083,0.2447,-0.0051,0,1.0000,0,0,-1.6168,-1.3855,-92.7340,-292.7673,20.6120,0.000,0.000,0.410,0.0000,0.0000,0.0000,0.0000,0.0000,0.0000,0
2026-04-17,08:27:18,4386,1,0.0000,0.0070,0.0079,0.2320,-0.0051,0,1.0000,0,0,-2.1212,-16.7018,-102.3574,-300.5406,38.5254,0.000,0.000,0.407,0.0000,0.0000,0.0000,0.0000,0.0000,0.0000,0
2026-04-17,08:27:18,4419,1,0.0000,0.0084,0.0083,0.2447,-0.0051,0,1.0000,0,0,-2.6606,-19.7262,-111.8471,-299.4688,54.3101,0.000,0.040,0.404,0.0000,0.0000,0.0000,0.0000,0.0000,0.0000,0
2026-04-17,08:27:18,4462,1,0.0000,0.0009,0.0094,0.2754,-0.0051,0,1.0000,0,0,-3.4297,-21.3403,-123.5915,-289.1584,72.5657,0.000,0.120,0.400,0.0000,0.0000,0.0000,0.0000,0.0000,0.0000,0
2026-04-17,08:27:18,4505,1,0.0000,0.0041,0.0083,0.2447,-0.0051,0,1.0000,0,0,-4.1391,-19.7880,-133.7811,-260.1184,87.9725,0.000,0.200,0.396,0.0000,0.0000,0.0000,0.0000,0.0000,0.0000,0
2026-04-17,08:27:18,4548,1,0.0000,-0.0022,0.0084,0.2479,-0.0051,0,1.0000,0,0,-4.7843,-18.0901,-142.1668,-222.1318,101.0128,0.000,0.280,0.392,0.0000,0.0000,0.0000,0.0000,0.0000,0.0000,0
2026-04-17,08:27:18,4591,1,0.0000,0.0054,0.0091,0.2690,-0.0051,0,1.0000,0,0,-5.4409,-17.3636,-148.9763,-184.7555,112.1224,0.000,0.360,0.388,0.0000,0.0000,0.0000,0.0000,0.0000,0.0000,0
2026-04-17,08:27:18,4624,1,0.0000,-0.0173,0.0105,0.3081,-0.0051,0,1.0000,0,0,-5.9104,-16.4680,-153.0540,-153.6850,105.6287,0.000,0.420,0.385,0.0000,0.0000,0.0000,0.0000,0.0000,0.0000,0
2026-04-17,08:27:18,4667,1,0.0000,-0.0006,0.0081,0.2373,-0.0051,0,1.0000,0,0,-7.0323,-26.8994,-155.3658,-93.7460,97.3884,0.000,0.500,0.381,0.0000,0.0000,0.0000,0.0000,0.0000,0.0000,0
2026-04-17,08:27:18,4700,1,0.0000,-0.0044,0.0104,0.3048,-0.0051,0,1.0000,0,0,-7.6627,-20.0224,-157.1820,-75.9019,105.8803,0.000,0.560,0.378,0.0000,0.0000,0.0000,0.0000,0.0000,0.0000,0
2026-04-17,08:27:18,4743,1,0.0000,-0.0112,0.0095,0.2805,-0.0051,0,1.0000,0,0,-8.2206,-13.5711,-159.9635,-73.3912,115.6066,0.000,0.640,0.374,0.0000,0.0000,0.0000,0.0000,0.0000,0.0000,0
2026-04-17,08:27:18,4786,1,0.0000,0.0069,0.0077,0.2258,-0.0051,0,1.0000,0,0,-8.5985,-9.7516,-162.4863,-67.0116,123.8376,0.000,0.720,0.370,0.0000,0.0000,0.0000,0.0000,0.0000,0.0000,0
2026-04-17,08:27:18,4829,1,0.0000,-0.0063,0.0075,0.2204,-0.0051,0,1.0000,0,0,-8.9176,-8.7603,-164.5060,-55.8697,130.8724,0.000,0.800,0.366,0.0000,0.0000,0.0000,0.0000,0.0000,0.0000,0
2026-04-17,08:27:18,4872,1,0.0000,-0.0183,0.0088,0.2576,-0.0051,0,1.0000,0,0,-9.9300,-34.2142,-166.7757,-58.0440,136.6582,0.000,0.880,0.362,0.0000,0.0000,0.0000,0.0000,0.0000,0.0000,0
2026-04-17,08:27:18,4905,1,0.0000,0.0016,0.0093,0.2722,-0.0051,0,1.0000,0,0,-13.5587,-99.3546,-169.1572,-65.8926,140.8166,0.000,0.940,0.359,0.0000,0.0000,0.0000,0.0000,0.0000,0.0000,0
2026-04-17,08:27:18,4938,1,0.0000,-0.0071,0.0089,0.2626,-0.0051,0,1.0000,0,0,-15.4851,-52.9359,-170.4650,-49.7429,124.2073,0.000,1.000,0.356,0.0000,0.0000,0.0000,0.0000,0.0000,0.0000,0
2026-04-17,08:27:18,4971,1,0.0000,-0.0008,0.0087,0.2553,-0.0051,0,1.0000,0,0,-13.6823,38.6915,-170.6682,-27.4747,129.1135,0.000,1.000,0.353,0.0000,0.0000,0.0000,0.0000,0.0000,0.0000,0
2026-04-17,08:27:18,5014,1,0.0000,0.0081,0.0081,0.2373,-0.0051,0,1.0000,0,0,-11.5585,45.7162,-170.8072,-9.1933,122.6724,0.000,1.000,0.349,0.0000,0.0000,0.0000,0.0000,0.0000,0.0000,0
2026-04-17,08:27:18,5057,1,0.0000,0.0024,0.0086,0.2521,-0.0051,0,1.0000,0,0,-9.5125,48.2423,-170.1858,3.1874,129.9748,0.000,1.000,0.345,0.0000,0.0000,0.0000,0.0000,0.0000,0.0000,0
2026-04-17,08:27:18,5100,1,0.0000,-0.0103,0.0092,0.2700,-0.0051,0,1.0000,0,0,-8.3638,23.6555,-170.6144,-7.1226,135.8893,0.000,1.000,0.341,0.0000,0.0000,0.0000,0.0000,0.0000,0.0000,0
2026-04-17,08:27:18,5133,1,0.0000,0.0027,0.0081,0.2373,-0.0051,0,1.0000,0,0,-8.2931,4.6732,-171.0781,-11.2503,139.9202,0.000,1.000,0.338,0.0000,0.0000,0.0000,0.0000,0.0000,0.0000,0
2026-04-17,08:27:18,5176,1,0.0000,-0.0055,0.0090,0.2648,-0.0051,0,1.0000,0,0,-8.5536,-6.7194,-171.3187,-8.0312,144.8093,0.000,1.000,0.334,0.0000,0.0000,0.0000,0.0000,0.0000,0.0000,0
2026-04-17,08:27:18,5214,1,0.0000,0.0002,0.0084,0.2479,-0.0051,0,1.0000,0,0,-9.8246,-19.0914,-171.4339,-7.2671,146.4243,0.000,1.000,0.332,0.0000,0.0000,0.0000,0.0000,0.0000,0.0000,0
2026-04-17,08:27:18,5257,1,0.0000,-0.0064,0.0096,0.2837,-0.0051,0,1.0000,0,0,-8.3761,39.6851,-169.2352,32.8142,133.1405,0.000,1.000,0.328,0.0000,0.0000,0.0000,0.0000,0.0000,0.0000,0
2026-04-17,08:27:18,5300,1,0.0000,-0.0032,0.0108,0.3164,-0.0051,0,1.0000,0,0,-6.8617,56.3130,-166.5694,50.6456,132.5235,0.000,1.000,0.324,0.0000,0.0000,0.0000,0.0000,0.0000,0.0000,0
2026-04-17,08:27:18,5343,1,0.0000,0.0033,0.0098,0.2869,-0.0051,0,1.0000,0,0,-7.9020,-16.4174,-164.0512,53.0500,132.1378,0.000,1.000,0.320,0.0000,0.0000,0.0000,0.0000,0.0000,0.0000,0
2026-04-17,08:27:19,5386,1,0.0000,-0.0028,0.0095,0.2796,-0.0051,0,1.0000,0,0,-9.1816,-32.9599,-162.0514,47.8230,138.7769,0.000,1.000,0.316,0.0000,0.0000,0.0000,0.0000,0.0000,0.0000,0
2026-04-17,08:27:19,5419,1,0.0000,0.0076,0.0075,0.2194,-0.0051,0,1.0000,0,0,-10.7589,-46.4477,-159.9216,55.9959,143.2296,0.000,1.000,0.313,0.0000,0.0000,0.0000,0.0000,0.0000,0.0000,0
2026-04-17,08:27:19,5462,1,0.0000,0.0039,0.0090,0.2658,-0.0051,0,1.0000,0,0,-12.1571,-29.1821,-156.6539,67.9897,148.6877,0.000,1.000,0.309,0.0000,0.0000,0.0000,0.0000,0.0000,0.0000,0
2026-04-17,08:27:19,5505,1,0.0000,0.0021,0.0095,0.2806,-0.0051,0,1.0000,0,0,-13.0695,-21.3505,-152.1735,90.6408,153.1457,0.000,1.000,0.305,0.0000,0.0000,0.0000,0.0000,0.0000,0.0000,0
2026-04-17,08:27:19,5548,1,0.0000,0.0044,0.0084,0.2479,-0.0051,0,1.0000,0,0,-14.1761,-23.6635,-146.3805,120.1261,117.0820,0.000,0.960,0.301,0.0000,0.0000,0.0000,0.0000,0.0000,0.0000,0
2026-04-17,08:27:19,5591,1,0.0000,0.0093,0.0072,0.2131,-0.0051,0,1.0000,0,0,-14.2907,4.3746,-139.0745,153.9054,98.7698,0.000,0.920,0.297,0.0000,0.0000,0.0000,0.0000,0.0000,0.0000,0
2026-04-17,08:27:19,5624,1,0.0000,0.0176,0.0080,0.2342,-0.0051,0,1.0000,0,0,-13.9037,12.5985,-131.8380,190.8414,81.4237,0.000,0.890,0.294,0.0000,0.0000,0.0000,0.0000,0.0000,0.0000,0
2026-04-17,08:27:19,5667,1,0.0000,-0.0156,0.0089,0.2626,-0.0051,0,1.0000,0,0,-13.3816,14.5405,-120.2109,249.4661,82.0730,0.000,0.850,0.290,0.0000,0.0000,0.0000,0.0000,0.0000,0.0000,0
2026-04-17,08:27:19,5710,1,0.0000,0.0029,0.0086,0.2521,-0.0051,0,1.0000,0,0,-12.9340,15.6632,-105.0137,327.4236,43.9563,0.000,0.810,0.286,0.0000,0.0000,0.0000,0.0000,0.0000,0.0000,0
2026-04-17,08:27:19,5753,1,0.0000,-0.0012,0.0093,0.2732,-0.0051,0,1.0000,0,0,-12.2196,20.3478,-87.0729,396.5776,32.5548,0.000,0.770,0.282,0.0000,0.0000,0.0000,0.0000,0.0000,0.0000,0
2026-04-17,08:27:19,5786,1,0.0000,-0.0106,0.0094,0.2764,-0.0051,0,1.0000,0,0,-11.7137,17.5391,-73.7939,406.4315,28.7182,0.000,0.740,0.279,0.0000,0.0000,0.0000,0.0000,0.0000,0.0000,0
2026-04-17,08:27:19,5829,1,0.0000,0.0083,0.0090,0.2658,-0.0051,0,1.0000,0,0,-11.5155,5.1083,-57.1615,404.0569,-1.1660,0.000,0.700,0.275,0.0000,0.0000,0.0000,0.0000,0.0000,0.0000,0
2026-04-17,08:27:19,5872,1,0.0000,-0.0121,0.0107,0.3147,-0.0050,0,1.0000,0,0,-11.0462,15.6579,-42.8211,366.9298,-27.2166,0.000,0.660,0.271,0.0000,0.0000,0.0000,0.0000,0.0000,0.0000,0
2026-04-17,08:27:19,5915,1,0.0000,-0.0063,0.0105,0.3082,-0.0050,0,1.0000,0,0,-9.9194,30.8688,-31.0925,315.2329,-49.8731,0.000,0.620,0.267,0.0000,0.0000,0.0000,0.0000,0.0000,0.0000,0
2026-04-17,08:27:19,5958,1,0.0000,-0.0111,0.0115,0.3369,-0.0050,0,1.0000,0,0,-8.3061,42.3532,-21.1406,270.6433,-69.1474,0.000,0.580,0.263,0.0000,0.0000,0.0000,0.0000,0.0000,0.0000,0
2026-04-17,08:27:19,6001,1,0.0000,-0.0017,0.0107,0.3152,-0.0049,0,1.0000,0,0,-6.3706,48.8165,-12.0352,241.2843,-64.7575,0.000,0.540,0.259,0.0000,0.0000,0.0000,0.0000,0.0000,0.0000,0
2026-04-17,08:27:19,6034,1,0.0000,-0.0135,0.0122,0.3579,-0.0049,0,1.0000,0,0,-5.1985,38.4669,-6.1153,211.6557,-57.3182,0.000,0.510,0.256,0.0000,0.0000,0.0000,0.0000,0.0000,0.0000,0
2026-04-17,08:27:19,6077,1,0.0000,0.0048,0.0117,0.3437,-0.0049,0,1.0000,0,0,-4.5246,15.1444,0.5166,181.2195,-50.2458,0.000,0.470,0.252,0.0000,0.0000,0.0000,0.0000,0.0000,0.0000,0
2026-04-17,08:27:19,6120,1,0.0000,-0.0011,0.0122,0.3579,-0.0049,0,1.0000,0,0,-4.8629,8.5305,3.8629,151.1525,-32.8401,0.000,0.440,0.249,0.0000,0.0000,0.0000,0.0000,0.0000,0.0000,0
2026-04-17,08:27:19,6163,1,0.0000,0.0019,0.0128,0.3759,-0.0048,0,1.0000,0,0,-4.1164,22.7192,8.9746,134.7690,-1.4678,0.000,0.400,0.245,0.0000,0.0000,0.0000,0.0000,0.0000,0.0000,0
2026-04-17,08:27:19,6196,1,0.0000,-0.0112,0.0157,0.4608,-0.0048,0,1.0000,0,0,-2.9400,34.9196,12.2472,118.2765,-7.7701,0.000,0.370,0.242,0.0000,0.0000,0.0000,0.0000,0.0000,0.0000,0
2026-04-17,08:27:19,6240,1,0.0000,0.0049,0.0140,0.4104,-0.0048,0,1.0000,0,0,-1.5802,32.4365,15.7682,95.3407,20.0972,0.000,0.330,0.238,0.0000,0.0000,0.0000,0.0000,0.0000,0.0000,0
2026-04-17,08:27:19,6283,1,0.0000,0.0024,0.0153,0.4501,-0.0047,0,1.0000,0,0,-0.8275,15.6473,18.4211,75.9849,43.7353,0.000,0.290,0.234,0.0000,0.0000,0.0000,0.0000,0.0000,0.0000,0
2026-04-17,08:27:19,6326,1,0.0000,0.0024,0.0167,0.4901,-0.0047,0,1.0000,0,0,-0.6361,8.3654,20.4281,59.3824,43.6451,0.000,0.250,0.230,0.0000,0.0000,0.0000,0.0000,0.0000,0.0000,0
2026-04-17,08:27:20,6369,1,0.0000,-0.0126,0.0182,0.5357,-0.0047,0,1.0000,0,0,-0.3210,4.6593,21.8784,44.4516,63.9368,0.000,0.210,0.226,0.0000,0.0000,0.0000,0.0000,0.0000,0.0000,0
2026-04-17,08:27:20,6412,1,0.0000,0.0090,0.0159,0.4674,-0.0047,0,1.0000,0,0,0.0960,14.7921,22.9273,33.2004,53.5541,0.000,0.170,0.222,0.0000,0.0000,0.0000,0.0000,0.0000,0.0000,0
2026-04-17,08:27:20,6455,1,0.0000,-0.0072,0.0186,0.5464,-0.0046,0,1.0000,0,0,1.3526,29.9506,24.0701,30.0403,19.2378,0.000,0.130,0.218,0.0000,0.0000,0.0000,0.0000,0.0000,0.0000,0
2026-04-17,08:27:20,6498,1,0.0000,-0.0371,0.0250,0.7367,-0.0044,0,1.0000,0,0,2.7642,35.4626,24.9848,25.5199,-9.8601,0.000,0.090,0.214,0.0000,0.0000,0.0000,0.0000,0.0000,0.0000,0
2026-04-17,08:27:20,6542,1,0.0000,-0.0535,0.0324,0.9528,-0.0039,0,1.0000,0,0,3.8897,24.8939,25.8946,22.7956,-34.6424,0.000,0.050,0.210,0.0000,0.0000,0.0000,0.0000,0.0000,0.0000,0
2026-04-17,08:27:20,6585,1,0.0000,-0.0293,0.0373,1.0973,-0.0035,0,1.0000,0,0,4.2188,5.2644,26.6630,20.0315,-55.9900,0.000,0.010,0.206,0.0000,0.0000,0.0000,0.0000,0.0000,0.0000,0
2026-04-17,08:27:20,6628,1,0.0000,-0.0044,0.0390,1.1463,-0.0035,0,1.0000,0,0,3.7632,-10.7359,27.2064,16.5630,-74.3942,0.000,0.000,0.202,0.0000,0.0000,0.0000,0.0000,0.0000,0.0000,0
2026-04-17,08:27:20,6671,1,0.0000,-0.0262,0.0434,1.2765,-0.0033,0,1.0000,0,0,3.4367,-8.6477,27.9982,19.1054,-90.1644,0.000,0.000,0.198,0.0000,0.0000,0.0000,0.0000,0.0000,0.0000,0
2026-04-17,08:27:20,6714,1,0.0000,-0.0346,0.0501,1.4746,-0.0030,0,1.0000,0,0,3.2817,-4.0028,28.9138,22.2810,-97.2421,0.000,0.000,0.194,0.0000,0.0000,0.0000,0.0000,0.0000,0.0000,0
2026-04-17,08:27:20,6747,1,0.0000,-0.0024,0.0532,1.5659,-0.0028,0,1.0000,0,0,3.3706,1.5646,29.7399,24.5399,-106.6605,0.000,0.000,0.191,0.0000,0.0000,0.0000,0.0000,0.0000,0.0000,0
2026-04-17,08:27:20,6790,1,0.0000,-0.0103,0.0517,1.5193,-0.0028,0,1.0000,0,0,3.3395,-3.5833,30.9890,28.2926,-117.5409,0.000,0.000,0.187,0.0000,0.0000,0.0000,0.0000,0.0000,0.0000,0
2026-04-17,08:27:20,6833,1,0.0000,-0.0062,0.0530,1.5602,-0.0028,0,1.0000,0,0,3.1285,-7.6632,32.1732,28.7022,-126.6826,0.000,0.000,0.183,0.0000,0.0000,0.0000,0.0000,0.0000,0.0000,0
2026-04-17,08:27:20,6876,1,0.0000,-0.0007,0.0522,1.5345,-0.0027,0,1.0000,0,0,2.9079,-6.7733,33.1665,25.4812,-134.3986,0.060,0.000,0.179,0.0000,0.0000,0.0000,0.0000,0.0000,0.0000,0
2026-04-17,08:27:20,6919,1,0.0000,-0.0087,0.0538,1.5835,-0.0027,0,1.0000,0,0,2.5460,-11.5525,33.8992,20.1078,-140.8950,0.140,0.000,0.175,0.0000,0.0000,0.0000,0.0000,0.0000,0.0000,0
2026-04-17,08:27:20,6952,1,0.0000,-0.0001,0.0534,1.5704,-0.0027,0,1.0000,0,0,2.0822,-14.9446,34.2999,15.8002,-145.2939,0.200,0.000,0.172,0.0000,0.0000,0.0000,0.0000,0.0000,0.0000,0
2026-04-17,08:27:20,6995,1,0.0000,-0.0031,0.0553,1.6278,-0.0026,0,1.0000,0,0,1.6942,-11.9026,34.5533,9.1167,-150.4055,0.280,0.000,0.168,0.0000,0.0000,0.0000,0.0000,0.0000,0.0000,0
2026-04-17,08:27:20,7037,1,0.0000,-0.0066,0.0568,1.6714,-0.0025,0,1.0000,0,0,1.5464,-9.7830,34.5926,6.2165,-152.7135,0.340,0.000,0.165,0.0000,0.0000,0.0000,0.0000,0.0000,0.0000,0
2026-04-17,08:27:20,7070,1,0.0000,0.0066,0.0563,1.6573,-0.0025,0,1.0000,0,0,0.9286,-19.1416,34.6947,4.8167,-141.8897,0.400,0.000,0.162,0.0000,0.0000,0.0000,0.0000,0.0000,0.0000,0
2026-04-17,08:27:20,7113,1,0.0000,-0.0305,0.0607,1.7841,-0.0024,0,1.0000,0,0,0.4174,-10.5928,35.0781,8.6149,-140.4469,0.480,0.000,0.158,0.0000,0.0000,0.0000,0.0000,0.0000,0.0000,0
2026-04-17,08:27:20,7156,1,0.0000,0.0020,0.0592,1.7412,-0.0023,0,1.0000,0,0,0.0251,-12.5824,35.7970,14.6009,-146.1938,0.560,0.000,0.154,0.0000,0.0000,0.0000,0.0000,0.0000,0.0000,0
2026-04-17,08:27:20,7199,1,0.0000,-0.0128,0.0609,1.7903,-0.0023,0,1.0000,0,0,-0.3820,-9.6922,36.2895,12.8409,-125.3640,0.640,0.000,0.150,0.0000,0.0000,0.0000,0.0000,0.0000,0.0000,0
2026-04-17,08:27:20,7242,1,0.0000,0.0042,0.0630,1.8523,-0.0022,0,1.0000,0,0,-0.7624,-12.3658,36.6556,10.3792,-133.3626,0.720,0.000,0.146,0.0000,0.0000,0.0000,0.0000,0.0000,0.0000,0
2026-04-17,08:27:20,7275,1,0.0000,0.0060,0.0620,1.8236,-0.0023,0,1.0000,0,0,-1.3791,-21.5655,36.9931,10.6540,-138.4834,0.780,0.000,0.143,0.0000,0.0000,0.0000,0.0000,0.0000,0.0000,0
2026-04-17,08:27:20,7318,1,0.0000,0.0094,0.0600,1.7645,-0.0023,0,1.0000,0,0,-1.9252,-11.4812,37.2447,7.4054,-131.3347,0.860,0.000,0.139,0.0000,0.0000,0.0000,0.0000,0.0000,0.0000,0
2026-04-17,08:27:21,7362,1,0.0000,0.0014,0.0629,1.8504,-0.0023,0,1.0000,0,0,-2.6665,-19.4480,37.5364,6.9599,-138.3139,0.940,0.000,0.135,0.0000,0.0000,0.0000,0.0000,0.0000,0.0000,0
2026-04-17,08:27:21,7405,1,0.0000,0.0039,0.0614,1.8069,-0.0023,0,1.0000,0,0,-3.0850,-9.5765,37.8798,8.0793,-144.1324,1.000,0.000,0.131,0.0000,0.0000,0.0000,0.0000,0.0000,0.0000,0
2026-04-17,08:27:21,7448,1,0.0000,0.0001,0.0593,1.7432,-0.0023,0,1.0000,0,0,-3.6861,-13.3658,38.1456,7.0488,-149.2192,1.000,0.000,0.127,0.0000,0.0000,0.0000,0.0000,0.0000,0.0000,0
2026-04-17,08:27:21,7491,1,0.0000,-0.0046,0.0611,1.7966,-0.0023,0,1.0000,0,0,-4.0213,-9.2972,38.3216,4.8502,-153.5903,1.000,0.000,0.123,0.0000,0.0000,0.0000,0.0000,0.0000,0.0000,0
2026-04-17,08:27:21,7524,1,0.0000,-0.0012,0.0596,1.7534,-0.0023,0,1.0000,0,0,-4.3495,-9.6476,38.3414,2.6200,-156.5166,1.000,0.000,0.120,0.0000,0.0000,0.0000,0.0000,0.0000,0.0000,0
2026-04-17,08:27:21,7568,1,0.0000,0.0020,0.0593,1.7452,-0.0024,0,1.0000,0,0,-4.5060,-3.7210,38.3003,0.0757,-159.9040,1.000,0.000,0.116,0.0000,0.0000,0.0000,0.0000,0.0000,0.0000,0
2026-04-17,08:27:21,7612,1,0.0000,0.0170,0.0573,1.6860,-0.0024,0,1.0000,0,0,-4.8144,-7.3154,38.0733,-3.6140,-148.7641,1.000,0.000,0.112,0.0000,0.0000,0.0000,0.0000,0.0000,0.0000,0
2026-04-17,08:27:21,7655,1,0.0000,0.0014,0.0582,1.7125,-0.0024,0,1.0000,0,0,-4.7629,3.6370,37.9119,-3.1381,-153.2467,0.990,0.000,0.108,0.0000,0.0000,0.0000,0.0000,0.0000,0.0000,0
2026-04-17,08:27:21,7698,1,0.0000,0.0043,0.0569,1.6723,-0.0025,0,1.0000,0,0,-4.7351,-0.6795,37.8633,-2.3002,-150.0317,0.950,0.000,0.104,0.0000,0.0000,0.0000,0.0000,0.0000,0.0000,0
2026-04-17,08:27:21,7741,1,0.0000,0.0010,0.0547,1.6095,-0.0026,0,1.0000,0,0,-5.0218,-4.9612,37.4186,-8.1060,-154.2985,0.910,0.000,0.100,0.0000,0.0000,0.0000,0.0000,0.0000,0.0000,0
2026-04-17,08:27:21,7774,1,0.0000,0.0042,0.0553,1.6278,-0.0026,0,1.0000,0,0,-5.1329,-3.9721,36.8947,-12.6112,-142.8732,0.880,0.000,0.097,0.0000,0.0000,0.0000,0.0000,0.0000,0.0000,0
2026-04-17,08:27:21,7817,1,0.0000,-0.0024,0.0510,1.5013,-0.0028,0,1.0000,0,0,-5.4589,-6.4844,35.9368,-18.9396,-135.6138,0.840,0.000,0.093,0.0000,0.0000,0.0000,0.0000,0.0000,0.0000,0
2026-04-17,08:27:21,7860,1,0.0000,0.0218,0.0507,1.4907,-0.0028,0,1.0000,0,0,-5.3593,3.7968,35.0855,-19.0190,-141.7007,0.800,0.000,0.089,0.0000,0.0000,0.0000,0.0000,0.0000,0.0000,0
2026-04-17,08:27:21,7903,1,0.0000,0.0022,0.0503,1.4787,-0.0028,0,1.0000,0,0,-4.9775,12.2077,34.5894,-14.0775,-146.8766,0.760,0.000,0.085,0.0000,0.0000,0.0000,0.0000,0.0000,0.0000,0
2026-04-17,08:27:21,7945,1,0.0000,-0.0085,0.0508,1.4937,-0.0028,0,1.0000,0,0,-4.7482,12.2115,34.2860,-10.6805,-149.0239,0.730,0.000,0.082,0.0000,0.0000,0.0000,0.0000,0.0000,0.0000,0
2026-04-17,08:27:21,7978,1,0.0000,0.0012,0.0504,1.4832,-0.0028,0,1.0000,0,0,-4.2046,15.9632,34.1497,-7.3154,-152.0099,0.700,0.000,0.079,0.0000,0.0000,0.0000,0.0000,0.0000,0.0000,0
2026-04-17,08:27:21,8021,1,0.0000,-0.0061,0.0519,1.5268,-0.0028,0,1.0000,0,0,-4.1235,1.9924,33.7821,-8.8317,-155.7805,0.660,0.000,0.075,0.0000,0.0000,0.0000,0.0000,0.0000,0.0000,0
2026-04-17,08:27:21,8064,1,0.0000,0.0055,0.0508,1.4937,-0.0028,0,1.0000,0,0,-4.0075,3.6787,33.2496,-11.2390,-159.0149,0.620,0.000,0.071,0.0000,0.0000,0.0000,0.0000,0.0000,0.0000,0
2026-04-17,08:27:21,8107,1,0.0000,-0.0116,0.0527,1.5508,-0.0028,0,1.0000,0,0,-3.7673,7.4253,32.7780,-11.4004,-161.8465,0.580,0.000,0.067,0.0000,0.0000,0.0000,0.0000,0.0000,0.0000,0
2026-04-17,08:27:21,8150,1,0.0000,-0.0044,0.0507,1.4907,-0.0028,0,1.0000,0,0,-3.2923,11.4210,32.5296,-7.6841,-164.2281,0.540,0.000,0.063,0.0000,0.0000,0.0000,0.0000,0.0000,0.0000,0
2026-04-17,08:27:21,8183,1,0.0000,0.0031,0.0508,1.4952,-0.0028,0,1.0000,0,0,-3.0590,7.9511,32.4504,-4.9314,-165.8130,0.510,0.000,0.060,0.0000,0.0000,0.0000,0.0000,0.0000,0.0000,0
2026-04-17,08:27:21,8226,1,0.0000,-0.0045,0.0516,1.5163,-0.0028,0,1.0000,0,0,-2.7478,7.1096,32.4131,-2.2910,-167.6297,0.470,0.000,0.056,0.0000,0.0000,0.0000,0.0000,0.0000,0.0000,0
2026-04-17,08:27:21,8269,1,0.0000,-0.0040,0.0514,1.5118,-0.0028,0,1.0000,0,0,-2.5528,4.6944,32.3225,-2.7983,-169.1557,0.430,0.000,0.052,0.0000,0.0000,0.0000,0.0000,0.0000,0.0000,0
2026-04-17,08:27:21,8312,1,0.0000,0.0007,0.0511,1.5043,-0.0028,0,1.0000,0,0,-2.4035,3.4293,32.1577,-3.4938,-170.4955,0.390,0.000,0.048,0.0000,0.0000,0.0000,0.0000,0.0000,0.0000,0
2026-04-17,08:27:22,8355,1,0.0000,-0.0059,0.0505,1.4862,-0.0028,0,1.0000,0,0,-2.2405,4.4640,31.8125,-6.9404,-171.6458,0.350,0.000,0.044,0.0000,0.0000,0.0000,0.0000,0.0000,0.0000,0
2026-04-17,08:27:22,8388,1,0.0000,-0.0023,0.0518,1.5238,-0.0028,0,1.0000,0,0,-1.9594,8.2422,31.6939,-5.1303,-172.3558,0.320,0.000,0.041,0.0000,0.0000,0.0000,0.0000,0.0000,0.0000,0
2026-04-17,08:27:22,8431,1,0.0000,0.0018,0.0503,1.4802,-0.0028,0,1.0000,0,0,-1.8877,-0.5380,31.6816,-2.7967,-173.2834,0.280,0.000,0.037,0.0000,0.0000,0.0000,0.0000,0.0000,0.0000,0
2026-04-17,08:27:22,8474,1,0.0000,-0.0025,0.0514,1.5132,-0.0028,0,1.0000,0,0,-2.1669,-4.0706,31.4567,-4.6127,-173.9608,0.240,0.000,0.033,0.0000,0.0000,0.0000,0.0000,0.0000,0.0000,0
2026-04-17,08:27:22,8517,1,0.0000,-0.0024,0.0503,1.4787,-0.0028,0,1.0000,0,0,-2.2106,-1.5375,31.3922,-2.7819,-174.5345,0.200,0.000,0.029,0.0000,0.0000,0.0000,0.0000,0.0000,0.0000,0
2026-04-17,08:27:22,8560,1,0.0000,-0.0003,0.0519,1.5267,-0.0028,0,1.0000,0,0,-2.3380,-2.0784,31.3424,-1.6138,-175.0650,0.160,0.000,0.025,0.0000,0.0000,0.0000,0.0000,0.0000,0.0000,0
2026-04-17,08:27:22,8593,1,0.0000,0.0021,0.0518,1.5223,-0.0028,0,1.0000,0,0,-2.3207,0.4663,31.4044,0.1758,-175.4194,0.130,0.000,0.022,0.0000,0.0000,0.0000,0.0000,0.0000,0.0000,0
2026-04-17,08:27:22,8636,1,0.0000,0.0067,0.0513,1.5088,-0.0028,0,1.0000,0,0,-2.2326,-0.5108,31.4808,1.3371,-175.9198,0.090,0.000,0.018,0.0000,0.0000,0.0000,0.0000,0.0000,0.0000,0
2026-04-17,08:27:22,8679,1,0.0000,0.0020,0.0511,1.5029,-0.0028,0,1.0000,0,0,-2.3271,-1.3288,31.6972,4.0458,-176.3504,0.050,0.000,0.014,0.0000,0.0000,0.0000,0.0000,0.0000,0.0000,0
2026-04-17,08:27:22,8712,1,0.0000,-0.0036,0.0512,1.5059,-0.0028,0,1.0000,0,0,-2.2213,2.6640,31.7668,2.9099,-176.6080,0.020,0.000,0.011,0.0000,0.0000,0.0000,0.0000,0.0000,0.0000,0
2026-04-17,08:27:22,8745,1,0.0000,-0.0016,0.0520,1.5298,-0.0028,0,1.0000,0,0,-2.1119,3.2216,31.8462,2.8406,-176.7515,0.000,0.000,0.008,0.0000,0.0000,0.0000,0.0000,0.0000,0.0000,0
2026-04-17,08:27:22,8778,1,0.0000,-0.0067,0.0510,1.5013,-0.0028,0,1.0000,0,0,-2.0147,3.1292,31.9852,3.7585,-176.8768,0.000,0.000,0.005,0.0000,0.0000,0.0000,0.0000,0.0000,0.0000,0
2026-04-17,08:27:22,8812,1,0.0000,-0.0060,0.0511,1.5029,-0.0028,0,1.0000,0,0,-1.9912,2.0924,32.0546,3.3849,-176.8620,0.000,0.000,0.003,0.0000,0.0000,0.0000,0.0000,0.0000,0.0000,0
2026-04-17,08:27:22,8855,1,0.0000,0.0031,0.0525,1.5432,-0.0028,0,1.0000,0,0,-1.7889,5.1453,32.1285,2.0212,-176.9737,0.000,0.000,0.000,0.0000,0.0000,0.0000,0.0000,0.0000,0.0000,0
2026-04-17,08:27:22,8899,1,0.0000,-0.0024,0.0509,1.4983,-0.0028,0,1.0000,0,0,-1.6379,3.3439,32.0578,-0.4201,-177.1064,0.000,0.000,0.000,0.0000,0.0000,0.0000,0.0000,0.0000,0.0000,0
2026-04-17,08:27:22,8932,1,0.0000,0.0008,0.0522,1.5357,-0.0028,0,1.0000,0,0,-1.5627,2.2753,32.0252,-0.8222,-177.2157,0.000,0.000,0.000,0.0000,0.0000,0.0000,0.0000,0.0000,0.0000,0
2026-04-17,08:27:22,8975,1,0.0000,-0.0050,0.0522,1.5344,-0.0028,0,1.0000,0,0,-1.3012,7.4552,32.1683,2.5581,-177.2637,0.000,0.000,0.000,0.0000,0.0000,0.0000,0.0000,0.0000,0.0000,0
2026-04-17,08:27:22,9018,1,0.0000,0.0031,0.0519,1.5252,-0.0028,0,1.0000,0,0,-1.2572,-4.2041,32.6108,7.7005,-170.8676,0.000,0.000,0.000,0.0000,0.0000,0.0000,0.0000,0.0000,0.0000,0
2026-04-17,08:27:22,9061,1,0.0000,0.0001,0.0527,1.5508,-0.0028,0,1.0000,0,0,-1.6048,-6.6662,32.7971,4.7831,-151.7617,0.000,0.000,0.000,0.0000,0.0000,0.0000,0.0000,0.0000,0.0000,0
2026-04-17,08:27:22,9105,1,0.0000,0.0066,0.0520,1.5298,-0.0028,0,1.0000,0,0,-1.7345,-3.4528,32.9508,4.3108,-155.6928,0.000,0.000,0.000,0.0000,0.0000,0.0000,0.0000,0.0000,0.0000,0
2026-04-17,08:27:22,9148,1,0.0000,-0.0008,0.0511,1.5029,-0.0028,0,1.0000,0,0,-1.8574,-2.6732,33.1810,5.3177,-158.9920,0.000,0.000,0.000,0.0000,0.0000,0.0000,0.0000,0.0000,0.0000,0
2026-04-17,08:27:22,9191,1,0.0000,0.0043,0.0511,1.5042,-0.0028,0,1.0000,0,0,-1.8964,-1.1810,33.3799,4.5549,-161.8178,0.000,0.000,0.000,0.0000,0.0000,0.0000,0.0000,0.0000,0.0000,0
2026-04-17,08:27:22,9234,1,0.0000,0.0062,0.0508,1.4937,-0.0028,0,1.0000,0,0,-1.9450,-1.8659,33.4867,3.1042,-164.2748,0.000,0.000,0.000,0.0000,0.0000,0.0000,0.0000,0.0000,0.0000,0
2026-04-17,08:27:22,9277,1,0.0000,0.0042,0.0508,1.4951,-0.0028,0,1.0000,0,0,-2.0733,-3.3365,33.4567,0.4684,-166.4053,0.000,0.000,0.000,0.0000,0.0000,0.0000,0.0000,0.0000,0.0000,0
2026-04-17,08:27:22,9310,1,0.0000,-0.0010,0.0525,1.5449,-0.0028,0,1.0000,0,0,-2.1677,-2.9629,33.4094,-0.5295,-167.7455,0.000,0.000,0.000,0.0000,0.0000,0.0000,0.0000,0.0000,0.0000,0
2026-04-17,08:27:23,9352,1,0.0000,-0.0085,0.0520,1.5298,-0.0028,0,1.0000,0,0,-2.3540,-4.7196,33.4455,0.3296,-169.3064,0.000,0.000,0.000,0.0000,0.0000,0.0000,0.0000,0.0000,0.0000,0
2026-04-17,08:27:23,9395,1,0.0000,-0.0111,0.0527,1.5496,-0.0028,0,1.0000,0,0,-2.4702,-2.8249,33.4213,-0.5036,-170.6058,0.000,0.000,0.000,0.0000,0.0000,0.0000,0.0000,0.0000,0.0000,0
2026-04-17,08:27:23,9438,1,0.0000,-0.0038,0.0515,1.5147,-0.0028,0,1.0000,0,0,-2.6076,-2.7698,33.3504,-1.3598,-171.7022,0.000,0.000,0.000,0.0000,0.0000,0.0000,0.0000,0.0000,0.0000,0
2026-04-17,08:27:23,9481,1,0.0000,-0.0134,0.0525,1.5449,-0.0028,0,1.0000,0,0,-2.6846,-2.3755,33.3635,-0.1015,-172.6508,0.000,0.000,0.000,0.0000,0.0000,0.0000,0.0000,0.0000,0.0000,0
2026-04-17,08:27:23,9514,1,0.0000,-0.0051,0.0518,1.5222,-0.0028,0,1.0000,0,0,-2.7554,-2.1377,33.3676,-0.0354,-173.2649,0.000,0.000,0.000,0.0000,0.0000,0.0000,0.0000,0.0000,0.0000,0
2026-04-17,08:27:23,9557,1,0.0000,0.0003,0.0514,1.5118,-0.0028,0,1.0000,0,0,-2.8275,-1.4565,33.2848,-1.5484,-173.9820,0.000,0.000,0.000,0.0000,0.0000,0.0000,0.0000,0.0000,0.0000,0
2026-04-17,08:27:23,9600,1,0.0000,-0.0051,0.0520,1.5298,-0.0028,0,1.0000,0,0,-2.8803,-0.8771,33.2217,-1.5710,-174.5427,0.000,0.000,0.000,0.0000,0.0000,0.0000,0.0000,0.0000,0.0000,0
2026-04-17,08:27:23,9643,1,0.0000,-0.0069,0.0526,1.5478,-0.0028,0,1.0000,0,0,-2.9115,-1.3475,33.1982,-0.9812,-175.0364,0.000,0.000,0.000,0.0000,0.0000,0.0000,0.0000,0.0000,0.0000,0
2026-04-17,08:27:23,9686,1,0.0000,0.0067,0.0512,1.5072,-0.0028,0,1.0000,0,0,-2.9824,-1.3250,33.4261,4.0088,-175.3755,0.000,0.000,0.000,0.0000,0.0000,0.0000,0.0000,0.0000,0.0000,0
2026-04-17,08:27:23,9724,1,0.0000,-0.0008,0.0517,1.5209,-0.0028,0,1.0000,0,0,-2.9840,0.4534,33.7012,5.8202,-175.5216,0.000,0.000,0.000,0.0000,0.0000,0.0000,0.0000,0.0000,0.0000,0
2026-04-17,08:27:23,9767,1,0.0000,0.0026,0.0509,1.4967,-0.0028,0,1.0000,0,0,-2.9221,0.4895,33.9945,6.5597,-176.0303,0.000,0.000,0.000,0.0000,0.0000,0.0000,0.0000,0.0000,0.0000,0
2026-04-17,08:27:23,9800,1,0.0000,-0.0037,0.0514,1.5118,-0.0028,0,1.0000,0,0,-2.9215,0.0703,34.1995,6.5701,-176.3236,0.000,0.000,0.000,0.0000,0.0000,0.0000,0.0000,0.0000,0.0000,0
2026-04-17,08:27:23,9833,1,0.0000,0.0102,0.0515,1.5147,-0.0028,0,1.0000,0,0,-2.9117,0.1074,34.3251,5.0646,-176.5657,0.000,0.000,0.000,0.0000,0.0000,0.0000,0.0000,0.0000,0.0000,0
2026-04-17,08:27:23,9876,1,0.0000,0.0003,0.0508,1.4937,-0.0028,0,1.0000,0,0,-2.8753,0.7701,34.3389,1.8779,-176.7833,0.000,0.000,0.000,0.0000,0.0000,0.0000,0.0000,0.0000,0.0000,0
2026-04-17,08:27:23,9919,1,0.0000,-0.0027,0.0516,1.5163,-0.0028,0,1.0000,0,0,-2.8198,1.6368,34.3291,0.4050,-176.9044,0.000,0.000,0.000,0.0000,0.0000,0.0000,0.0000,0.0000,0.0000,0
2026-04-17,08:27:23,9962,1,0.0000,-0.0043,0.0526,1.5478,-0.0028,0,1.0000,0,0,-2.6613,3.8266,34.3898,0.9334,-176.9698,0.000,0.000,0.000,0.0000,0.0000,0.0000,0.0000,0.0000,0.0000,0
2026-04-17,08:27:23,9995,1,0.0000,0.0081,0.0491,1.4427,-0.0028,0,1.0000,0,0,-2.6135,1.2244,34.4469,1.2890,-177.0608,0.000,0.000,0.000,0.0000,0.0000,0.0000,0.0000,0.0000,0.0000,0
2026-04-17,08:27:23,10028,1,0.0000,0.0011,0.0513,1.5088,-0.0028,0,1.0000,0,0,-2.6800,-1.6598,34.4753,0.9140,-177.1745,0.000,0.000,0.000,0.0000,0.0000,0.0000,0.0000,0.0000,0.0000,0
2026-04-17,08:27:23,10071,1,0.0000,-0.0005,0.0520,1.5298,-0.0028,0,1.0000,0,0,-2.6782,0.1467,34.5113,1.0807,-177.3243,0.000,0.000,0.000,0.0000,0.0000,0.0000,0.0000,0.0000,0.0000,0
2026-04-17,08:27:23,10114,1,0.0000,0.0096,0.0509,1.4983,-0.0028,0,1.0000,0,0,-2.7571,-2.2738,34.4878,-0.2219,-177.4955,0.000,0.000,0.000,0.0000,0.0000,0.0000,0.0000,0.0000,0.0000,0
2026-04-17,08:27:23,10157,1,0.0000,-0.0082,0.0510,1.5013,-0.0028,0,1.0000,0,0,-2.7949,-1.1001,34.4097,-1.5167,-177.6243,0.000,0.000,0.000,0.0000,0.0000,0.0000,0.0000,0.0000,0.0000,0
2026-04-17,08:27:23,10190,1,0.0000,0.0087,0.0506,1.4878,-0.0028,0,1.0000,0,0,-2.8564,-1.6887,34.3075,-2.7352,-177.6822,0.000,0.000,0.000,0.0000,0.0000,0.0000,0.0000,0.0000,0.0000,0
2026-04-17,08:27:23,10233,1,0.0000,0.0037,0.0514,1.5118,-0.0028,0,1.0000,0,0,-2.8804,-0.9279,34.1088,-4.3907,-177.6916,0.000,0.000,0.000,0.0000,0.0000,0.0000,0.0000,0.0000,0.0000,0
2026-04-17,08:27:23,10276,1,0.0000,0.0052,0.0503,1.4787,-0.0028,0,1.0000,0,0,-2.9853,-2.5559,33.9543,-4.0988,-177.7247,0.000,0.000,0.000,0.0000,0.0000,0.0000,0.0000,0.0000,0.0000,0
2026-04-17,08:27:23,10319,1,0.0000,0.0026,0.0507,1.4923,-0.0028,0,1.0000,0,0,-3.1110,-3.3012,33.8095,-3.7496,-177.7861,0.000,0.000,0.000,0.0000,0.0000,0.0000,0.0000,0.0000,0.0000,0
2026-04-17,08:27:24,10362,1,0.0000,0.0190,0.0506,1.4894,-0.0029,0,1.0000,0,0,-3.3791,-6.4623,33.6590,-3.4457,-177.8693,0.000,0.000,0.000,0.0000,0.0000,0.0000,0.0000,0.0000,0.0000,0
2026-04-17,08:27:24,10405,1,0.0000,0.0152,0.0485,1.4250,-0.0030,0,1.0000,0,0,-3.6247,-5.7508,33.4037,-5.2216,-177.9515,0.000,0.000,0.000,0.0000,0.0000,0.0000,0.0000,0.0000,0.0000,0
2026-04-17,08:27:24,10448,1,0.0000,0.0358,0.0419,1.2337,-0.0032,0,1.0000,0,0,-3.8607,-4.9285,33.0000,-7.9517,-178.0919,0.060,0.000,0.000,0.0000,0.0000,0.0000,0.0000,0.0000,0.0000,0
2026-04-17,08:27:24,10491,1,0.0000,0.0048,0.0406,1.1953,-0.0034,0,1.0000,0,0,-3.8779,1.7311,32.4286,-10.9678,-177.9044,0.020,0.000,0.000,0.0000,0.0000,0.0000,0.0000,0.0000,0.0000,0
2026-04-17,08:27:24,10534,1,0.0000,0.0245,0.0371,1.0904,-0.0035,0,1.0000,0,0,-3.6588,5.7707,32.0770,-9.2456,-177.8053,0.000,0.000,0.000,0.0000,0.0000,0.0000,0.0000,0.0000,0.0000,0
2026-04-17,08:27:24,10576,1,0.0000,0.1026,0.0203,0.5964,-0.0042,0,1.0000,0,0,-3.5340,4.7874,31.6291,-10.5797,-177.7961,0.000,0.000,0.000,0.0000,0.0000,0.0000,0.0000,0.0000,0.0000,0
2026-04-17,08:27:24,10613,1,0.0000,0.0521,0.0163,0.4797,-0.0046,0,1.0000,0,0,-3.6299,1.5930,31.1735,-11.0497,-177.7150,0.000,0.000,0.000,0.0000,0.0000,0.0000,0.0000,0.0000,0.0000,0
2026-04-17,08:27:24,10655,1,0.0000,0.0182,0.0149,0.4394,-0.0048,0,1.0000,0,0,-3.3828,5.9136,30.6112,-13.6385,-177.6998,0.000,0.000,0.000,0.0000,0.0000,0.0000,0.0000,0.0000,0.0000,0
2026-04-17,08:27:24,10698,1,0.0000,-0.0199,0.0129,0.3787,-0.0048,0,1.0000,0,0,-3.0203,11.0177,29.3469,-24.6119,-177.6237,0.000,0.000,0.000,0.0000,0.0000,0.0000,0.0000,0.0000,0.0000,0
2026-04-17,08:27:24,10742,1,0.0000,-0.0024,0.0137,0.4038,-0.0048,0,1.0000,0,0,-2.4570,12.9960,28.2680,-25.5286,-177.6042,0.000,0.000,0.000,0.0000,0.0000,0.0000,0.0000,0.0000,0.0000,0
2026-04-17,08:27:24,10785,1,0.0000,0.0072,0.0127,0.3721,-0.0049,0,1.0000,0,0,-1.9578,13.0475,26.4845,-37.7739,-177.8873,0.000,0.000,0.000,0.0000,0.0000,0.0000,0.0000,0.0000,0.0000,0
2026-04-17,08:27:24,10828,1,0.0000,-0.0017,0.0129,0.3791,-0.0049,0,1.0000,0,0,-1.4482,11.9325,25.0134,-34.8833,-177.5622,0.000,0.000,0.000,0.0000,0.0000,0.0000,0.0000,0.0000,0.0000,0
2026-04-17,08:27:24,10871,1,0.0000,0.0010,0.0123,0.3614,-0.0049,0,1.0000,0,0,-1.2025,6.2086,24.2829,-24.5190,-177.6613,0.000,0.000,0.000,0.0000,0.0000,0.0000,0.0000,0.0000,0.0000,0
2026-04-17,08:27:24,10904,1,0.0000,0.0058,0.0123,0.3614,-0.0049,0,1.0000,0,0,-1.0684,4.4171,23.5676,-23.4510,-177.7553,0.000,0.000,0.000,0.0000,0.0000,0.0000,0.0000,0.0000,0.0000,0
2026-04-17,08:27:24,10948,1,0.0000,-0.0036,0.0116,0.3402,-0.0049,0,1.0000,0,0,-0.9357,2.6246,22.8010,-19.2076,-177.5374,0.000,0.000,0.000,0.0000,0.0000,0.0000,0.0000,0.0000,0.0000,0
2026-04-17,08:27:24,10991,1,0.0000,0.0080,0.0120,0.3544,-0.0049,0,1.0000,0,0,-0.8939,1.3867,22.2281,-16.8962,-177.6173,0.000,0.000,0.000,0.0000,0.0000,0.0000,0.0000,0.0000,0.0000,0
2026-04-17,08:27:24,11034,1,0.0000,0.0001,0.0120,0.3544,-0.0049,0,1.0000,0,0,-0.8394,1.8067,21.3989,-18.8987,-177.7407,0.000,0.000,0.000,0.0000,0.0000,0.0000,0.0000,0.0000,0.0000,0
2026-04-17,08:27:24,11077,1,0.0000,0.0036,0.0111,0.3260,-0.0049,0,1.0000,0,0,-0.7285,2.5274,20.9230,-13.3986,-177.5613,0.000,0.000,0.000,0.0000,0.0000,0.0000,0.0000,0.0000,0.0000,0
2026-04-17,08:27:24,11120,1,0.0000,0.0002,0.0120,0.3543,-0.0049,0,1.0000,0,0,-0.6237,2.9322,20.4102,-13.0730,-177.5728,0.000,0.000,0.000,0.0000,0.0000,0.0000,0.0000,0.0000,0.0000,0
2026-04-17,08:27:24,11153,1,0.0000,-0.0023,0.0110,0.3225,-0.0049,0,1.0000,0,0,-0.5105,3.3520,20.1455,-10.3812,-177.4441,0.000,0.000,0.000,0.0000,0.0000,0.0000,0.0000,0.0000,0.0000,0
2026-04-17,08:27:24,11196,1,0.0000,-0.0082,0.0124,0.3650,-0.0049,0,1.0000,0,0,-0.3335,4.4923,19.9587,-6.9508,-177.4247,0.000,0.000,0.000,0.0000,0.0000,0.0000,0.0000,0.0000,0.0000,0
2026-04-17,08:27:24,11239,1,0.0000,-0.0038,0.0118,0.3473,-0.0049,0,1.0000,0,0,-0.1744,3.6635,19.9350,-2.5043,-177.2924,0.000,0.000,0.000,0.0000,0.0000,0.0000,0.0000,0.0000,0.0000,0
2026-04-17,08:27:24,11282,1,0.0000,-0.0034,0.0127,0.3721,-0.0049,0,1.0000,0,0,0.0166,5.3949,20.4381,6.3591,-177.0561,0.000,0.000,0.000,0.0000,0.0000,0.0000,0.0000,0.0000,0.0000,0
2026-04-17,08:27:24,11325,1,0.0000,-0.0145,0.0153,0.4501,-0.0048,0,1.0000,0,0,0.5346,13.9489,21.1023,11.0362,-169.9900,0.000,0.000,0.000,0.0000,0.0000,0.0000,0.0000,0.0000,0.0000,0
2026-04-17,08:27:25,11358,1,0.0000,0.0051,0.0166,0.4889,-0.0047,0,1.0000,0,0,1.0149,13.7838,21.2447,6.6935,-137.2843,0.000,0.000,0.000,0.0000,0.0000,0.0000,0.0000,0.0000,0.0000,0
2026-04-17,08:27:25,11401,1,0.0000,-0.0230,0.0184,0.5416,-0.0046,0,1.0000,0,0,1.3237,5.6640,21.4449,6.0242,-143.2344,0.000,0.000,0.000,0.0000,0.0000,0.0000,0.0000,0.0000,0.0000,0
2026-04-17,08:27:25,11444,1,0.0000,-0.0316,0.0238,0.6996,-0.0044,0,1.0000,0,0,1.3615,-0.6761,22.0846,11.8100,-148.5191,0.000,0.000,0.000,0.0000,0.0000,0.0000,0.0000,0.0000,0.0000,0
2026-04-17,08:27:25,11487,1,0.0000,-0.0368,0.0260,0.7646,-0.0043,0,1.0000,0,0,0.9458,-12.7968,22.9728,18.1143,-152.8350,0.000,0.000,0.000,0.0000,0.0000,0.0000,0.0000,0.0000,0.0000,0
2026-04-17,08:27:25,11521,1,0.0000,-0.0631,0.0365,1.0749,-0.0038,0,1.0000,0,0,0.4039,-14.0520,23.5769,18.1865,-153.7689,0.000,0.000,0.000,0.0000,0.0000,0.0000,0.0000,0.0000,0.0000,0
2026-04-17,08:27:25,11565,1,0.0000,-0.0416,0.0443,1.3018,-0.0033,0,1.0000,0,0,-0.4234,-18.7601,24.5846,21.1747,-157.4296,0.080,0.000,0.000,0.0000,0.0000,0.0000,0.0000,0.0000,0.0000,0
2026-04-17,08:27:25,11608,1,0.0000,-0.0097,0.0464,1.3641,-0.0031,0,1.0000,0,0,-1.1673,-15.1259,25.4159,20.7958,-160.5765,0.160,0.000,0.000,0.0000,0.0000,0.0000,0.0000,0.0000,0.0000,0
2026-04-17,08:27:25,11641,1,0.0000,-0.0177,0.0487,1.4317,-0.0030,0,1.0000,0,0,-1.1630,-2.3495,26.2374,24.3311,-162.5416,0.220,0.000,0.000,0.0000,0.0000,0.0000,0.0000,0.0000,0.0000,0
2026-04-17,08:27:25,11674,1,0.0000,0.0028,0.0489,1.4389,-0.0029,0,1.0000,0,0,-1.2102,-3.2188,27.0288,24.6573,-164.3980,0.280,0.000,0.000,0.0000,0.0000,0.0000,0.0000,0.0000,0.0000,0
2026-04-17,08:27:25,11717,1,0.0000,0.0022,0.0476,1.4007,-0.0030,0,1.0000,0,0,-1.4383,-5.4629,27.8337,21.6295,-166.5991,0.360,0.000,0.000,0.0000,0.0000,0.0000,0.0000,0.0000,0.0000,0
2026-04-17,08:27:25,11760,1,0.0000,-0.0039,0.0480,1.4105,-0.0029,0,1.0000,0,0,-1.6224,-3.2743,28.6215,20.9092,-168.2833,0.440,0.000,0.000,0.0000,0.0000,0.0000,0.0000,0.0000,0.0000,0
2026-04-17,08:27:25,11793,1,0.0000,-0.0065,0.0494,1.4535,-0.0029,0,1.0000,0,0,-1.6428,-1.1914,29.2002,19.8133,-169.3266,0.440,0.000,0.000,0.0000,0.0000,0.0000,0.0000,0.0000,0.0000,0
2026-04-17,08:27:25,11826,1,0.0000,0.0111,0.0485,1.4276,-0.0030,0,1.0000,0,0,-1.7185,-2.0775,29.5920,15.6988,-170.2442,0.410,0.000,0.000,0.0000,0.0000,0.0000,0.0000,0.0000,0.0000,0
2026-04-17,08:27:25,11870,1,0.0000,-0.0115,0.0486,1.4283,-0.0029,0,1.0000,0,0,-1.5956,4.2033,29.9248,10.7910,-171.2045,0.370,0.000,0.000,0.0000,0.0000,0.0000,0.0000,0.0000,0.0000,0
2026-04-17,08:27:25,11913,1,0.0000,-0.0065,0.0491,1.4430,-0.0030,0,1.0000,0,0,-1.4069,2.9323,30.3221,10.0530,-172.0732,0.330,0.000,0.000,0.0000,0.0000,0.0000,0.0000,0.0000,0.0000,0
2026-04-17,08:27:25,11956,1,0.0000,-0.0054,0.0487,1.4324,-0.0030,0,1.0000,0,0,-1.4899,-1.2454,30.5896,7.4928,-172.8965,0.290,0.000,0.000,0.0000,0.0000,0.0000,0.0000,0.0000,0.0000,0
2026-04-17,08:27:25,11999,1,0.0000,-0.0094,0.0487,1.4324,-0.0030,0,1.0000,0,0,-1.4353,1.0701,30.7776,6.1642,-173.5971,0.250,0.000,0.000,0.0000,0.0000,0.0000,0.0000,0.0000,0.0000,0
2026-04-17,08:27:25,12042,1,0.0000,0.0032,0.0481,1.4138,-0.0030,0,1.0000,0,0,-1.4825,-1.2762,30.8299,2.3396,-174.2668,0.210,0.000,0.000,0.0000,0.0000,0.0000,0.0000,0.0000,0.0000,0
2026-04-17,08:27:25,12075,1,0.0000,0.0050,0.0494,1.4535,-0.0030,0,1.0000,0,0,-1.4637,0.5327,30.7756,0.2595,-174.6268,0.180,0.000,0.000,0.0000,0.0000,0.0000,0.0000,0.0000,0.0000,0
2026-04-17,08:27:25,12118,1,0.0000,0.0071,0.0487,1.4317,-0.0030,0,1.0000,0,0,-1.4104,0.8596,30.7319,-0.8657,-175.0631,0.140,0.000,0.000,0.0000,0.0000,0.0000,0.0000,0.0000,0.0000,0
2026-04-17,08:27:25,12161,1,0.0000,0.0072,0.0486,1.4291,-0.0030,0,1.0000,0,0,-1.3541,0.5721,30.6678,-1.3265,-175.4007,0.100,0.000,0.000,0.0000,0.0000,0.0000,0.0000,0.0000,0.0000,0
2026-04-17,08:27:25,12204,1,0.0000,0.0107,0.0481,1.4145,-0.0030,0,1.0000,0,0,-1.4064,-1.2504,30.5509,-2.5533,-175.7439,0.060,0.000,0.000,0.0000,0.0000,0.0000,0.0000,0.0000,0.0000,0
2026-04-17,08:27:25,12247,1,0.0000,0.0082,0.0499,1.4674,-0.0030,0,1.0000,0,0,-1.4204,0.6539,30.4484,-2.4319,-176.0175,0.020,0.000,0.000,0.0000,0.0000,0.0000,0.0000,0.0000,0.0000,0
2026-04-17,08:27:25,12289,1,0.0000,0.0049,0.0481,1.4145,-0.0030,0,1.0000,0,0,-1.3751,-0.4208,30.3743,-2.5070,-176.2604,0.000,0.000,0.000,0.0000,0.0000,0.0000,0.0000,0.0000,0.0000,0
2026-04-17,08:27:25,12332,1,0.0000,0.0046,0.0482,1.4178,-0.0030,0,1.0000,0,0,-1.4673,-1.1857,30.4210,0.0354,-176.4747,0.000,0.000,0.000,0.0000,0.0000,0.0000,0.0000,0.0000,0.0000,0
2026-04-17,08:27:26,12375,1,0.0000,-0.0041,0.0486,1.4284,-0.0030,0,1.0000,0,0,-1.4861,-1.2949,30.5669,2.4539,-176.7141,0.000,0.000,0.000,0.0000,0.0000,0.0000,0.0000,0.0000,0.0000,0
2026-04-17,08:27:26,12408,1,0.0000,0.0025,0.0499,1.4674,-0.0030,0,1.0000,0,0,-1.5276,-1.3438,30.5906,2.0678,-176.7938,0.000,0.000,0.000,0.0000,0.0000,0.0000,0.0000,0.0000,0.0000,0
2026-04-17,08:27:26,12451,1,0.0000,-0.0007,0.0492,1.4462,-0.0030,0,1.0000,0,0,-1.6564,-3.4515,30.7141,2.9461,-176.9233,0.000,0.000,0.000,0.0000,0.0000,0.0000,0.0000,0.0000,0.0000,0
2026-04-17,08:27:26,12484,1,0.0000,0.0030,0.0483,1.4218,-0.0030,0,1.0000,0,0,-1.8087,-4.3343,30.8288,3.1898,-176.9827,0.000,0.000,0.000,0.0000,0.0000,0.0000,0.0000,0.0000,0.0000,0
2026-04-17,08:27:26,12527,1,0.0000,0.0090,0.0481,1.4138,-0.0030,0,1.0000,0,0,-1.9578,-3.1495,30.8215,0.7352,-177.0428,0.000,0.000,0.000,0.0000,0.0000,0.0000,0.0000,0.0000,0.0000,0
2026-04-17,08:27:26,12562,1,-1.6720,-0.3140,-0.0010,0.0307,-0.0024,0,1.0000,-209,1,-2.8007,-29.5437,30.7619,-0.5214,-177.1884,0.000,0.000,0.000,0.0000,0.0000,0.0000,0.0000,0.0000,0.0000,0
2026-04-17,08:27:26,12596,1,-2.2320,-0.0598,0.0234,0.6875,0.0002,0,1.0000,-279,1,-2.8803,-5.6123,31.1370,6.9360,-169.6715,0.010,0.000,0.000,0.0000,0.0000,0.0000,0.0000,0.0000,0.0000,0
2026-04-17,08:27:26,12630,1,-2.2960,-0.0287,0.0214,0.6281,0.0009,0,1.0000,-287,1,-2.8408,8.5694,30.5763,-8.1362,-137.4162,0.000,0.000,0.000,0.0000,0.0000,0.0000,0.0000,0.0000,0.0000,0
2026-04-17,08:27:26,12664,1,-2.3120,0.0226,0.0156,0.4597,0.0008,0,1.0000,-289,1,-1.6934,30.3547,29.4532,-21.2328,-141.7945,0.000,0.000,0.000,0.0000,0.0000,0.0000,0.0000,0.0000,0.0000,0
2026-04-17,08:27:26,12707,1,-2.3120,0.0113,0.0165,0.4854,0.0007,0,1.0000,-289,1,-2.1655,-15.5541,28.8769,-18.1942,-126.0654,0.000,0.000,0.000,0.0000,0.0000,0.0000,0.0000,0.0000,0.0000,0
2026-04-17,08:27:26,12741,1,-2.3120,-0.0088,0.0168,0.4947,0.0007,0,1.0000,-289,1,-2.2224,0.1121,27.9560,-23.9312,-131.9586,0.000,0.000,0.000,0.0000,0.0000,0.0000,0.0000,0.0000,0.0000,0
2026-04-17,08:27:26,12774,1,-2.3120,-0.0033,0.0156,0.4576,0.0007,0,1.0000,-289,1,-1.9573,5.1326,27.3209,-22.1995,-137.1638,0.000,0.000,0.000,0.0000,0.0000,0.0000,0.0000,0.0000,0.0000,0
2026-04-17,08:27:26,12817,1,-2.3120,-0.0004,0.0157,0.4609,0.0007,0,1.0000,-289,1,-1.9116,2.8093,26.4700,-21.3908,-143.1941,0.000,0.000,0.000,0.0000,0.0000,0.0000,0.0000,0.0000,0.0000,0
2026-04-17,08:27:26,12850,1,-2.2800,-0.0044,0.0166,0.4873,0.0008,0,1.0000,-285,1,-1.7307,4.5830,26.0296,-17.3862,-147.1386,0.000,0.000,0.000,0.0000,0.0000,0.0000,0.0000,0.0000,0.0000,0
2026-04-17,08:27:26,12894,1,-2.2800,-0.0060,0.0175,0.5137,0.0008,0,1.0000,-285,1,-1.6369,2.0303,25.6086,-12.3445,-151.6855,0.000,0.000,0.000,0.0000,0.0000,0.0000,0.0000,0.0000,0.0000,0
2026-04-17,08:27:26,12937,1,-2.2800,0.0064,0.0175,0.5138,0.0008,0,1.0000,-285,1,-1.7367,-3.0319,25.5184,-5.8604,-155.5385,0.000,0.000,0.000,0.0000,0.0000,0.0000,0.0000,0.0000,0.0000,0
2026-04-17,08:27:26,12972,1,-2.1840,-0.0045,0.0184,0.5426,0.0008,0,1.0000,-273,1,-1.8819,-4.2184,25.4162,-4.3504,-158.0769,0.000,0.000,0.000,0.0000,0.0000,0.0000,0.0000,0.0000,0.0000,0
2026-04-17,08:27:26,13005,1,-2.1840,-0.0084,0.0184,0.5404,0.0008,0,1.0000,-273,1,-2.0172,-3.9569,25.3288,-3.4904,-160.3136,0.000,0.000,0.000,0.0000,0.0000,0.0000,0.0000,0.0000,0.0000,0
2026-04-17,08:27:26,13049,1,-2.1840,-0.0034,0.0172,0.5052,0.0008,0,1.0000,-273,1,-2.1832,-3.4958,25.1552,-4.1306,-162.8530,0.000,0.000,0.000,0.0000,0.0000,0.0000,0.0000,0.0000,0.0000,0
2026-04-17,08:27:26,13082,1,-2.1840,0.0045,0.0179,0.5269,0.0008,0,1.0000,-273,1,-2.1890,-0.3852,25.0196,-4.3085,-164.5322,0.000,0.000,0.000,0.0000,0.0000,0.0000,0.0000,0.0000,0.0000,0
2026-04-17,08:27:26,13125,1,-2.1840,-0.0039,0.0188,0.5544,0.0008,0,1.0000,-273,1,-2.0262,4.1545,25.0402,-0.7399,-166.4682,0.000,0.000,0.000,0.0000,0.0000,0.0000,0.0000,0.0000,0.0000,0
2026-04-17,08:27:26,13158,1,-2.1840,0.0092,0.0172,0.5063,0.0008,0,1.0000,-273,1,-1.8230,6.1681,25.1755,1.8942,-167.6956,0.000,0.000,0.000,0.0000,0.0000,0.0000,0.0000,0.0000,0.0000,0
2026-04-17,08:27:26,13191,1,-2.1840,0.0024,0.0180,0.5307,0.0008,0,1.0000,-273,1,-1.7115,1.7395,25.1045,-0.9185,-168.8295,0.000,0.000,0.000,0.0000,0.0000,0.0000,0.0000,0.0000,0.0000,0
2026-04-17,08:27:26,13233,1,-2.1840,0.0046,0.0184,0.5415,0.0008,0,1.0000,-273,1,-2.0017,-3.6247,24.8395,-3.8620,-169.5303,0.000,0.000,0.000,0.0000,0.0000,0.0000,0.0000,0.0000,0.0000,0
2026-04-17,08:27:26,13267,1,-2.2160,0.0117,0.0178,0.5247,0.0008,0,1.0000,-277,1,-1.9468,1.2735,24.6198,-5.1907,-170.4350,0.000,0.000,0.000,0.0000,0.0000,0.0000,0.0000,0.0000,0.0000,0
2026-04-17,08:27:26,13310,1,-2.2160,-0.0026,0.0187,0.5513,0.0008,0,1.0000,-277,1,-1.9971,-0.6197,24.3975,-5.4024,-171.4966,0.000,0.000,0.000,0.0000,0.0000,0.0000,0.0000,0.0000,0.0000,0
2026-04-17,08:27:27,13354,1,-2.2240,0.0037,0.0175,0.5150,0.0008,0,1.0000,-278,1,-1.8192,3.8285,24.1372,-5.6811,-172.3342,0.000,0.000,0.000,0.0000,0.0000,0.0000,0.0000,0.0000,0.0000,0
2026-04-17,08:27:27,13388,1,-2.2400,0.0025,0.0171,0.5032,0.0008,0,1.0000,-280,1,-1.6786,4.0903,24.0111,-4.9351,-172.8607,0.000,0.000,0.000,0.0000,0.0000,0.0000,0.0000,0.0000,0.0000,0
2026-04-17,08:27:27,13421,1,-2.2560,0.0085,0.0182,0.5345,0.0008,0,1.0000,-282,1,-1.5549,3.9879,23.9339,-3.5416,-173.3388,0.000,0.000,0.000,0.0000,0.0000,0.0000,0.0000,0.0000,0.0000,0
2026-04-17,08:27:27,13455,1,-2.3040,-0.0052,0.0182,0.5356,0.0008,0,1.0000,-288,1,-1.4816,2.0732,23.8947,-2.3174,-173.7737,0.000,0.000,0.000,0.0000,0.0000,0.0000,0.0000,0.0000,0.0000,0
2026-04-17,08:27:27,13489,1,-2.3760,-0.0088,0.0188,0.5523,0.0008,0,1.0000,-297,1,-1.4783,1.0540,23.9155,-0.6218,-174.2090,0.000,0.000,0.000,0.0000,0.0000,0.0000,0.0000,0.0000,0.0000,0
2026-04-17,08:27:27,13522,1,-2.3760,-0.0070,0.0195,0.5740,0.0009,0,1.0000,-297,1,-1.3165,4.3922,23.8331,-1.9116,-174.5673,0.000,0.000,0.000,0.0000,0.0000,0.0000,0.0000,0.0000,0.0000,0
2026-04-17,08:27:27,13566,1,-2.5760,-0.0092,0.0194,0.5699,0.0009,0,1.0000,-322,1,-1.1604,2.7867,23.7333,-2.2268,-175.0038,0.000,0.000,0.000,0.0000,0.0000,0.0000,0.0000,0.0000,0.0000,0
2026-04-17,08:27:27,13599,1,-2.5760,0.0043,0.0186,0.5465,0.0009,0,1.0000,-322,1,-1.2097,-1.6644,23.5678,-3.7176,-175.2449,0.000,0.000,0.000,0.0000,0.0000,0.0000,0.0000,0.0000,0.0000,0
2026-04-17,08:27:27,13633,1,-2.5760,0.0052,0.0197,0.5799,0.0009,0,1.0000,-322,1,-1.2255,-0.8213,23.5091,-2.7228,-175.4538,0.000,0.000,0.000,0.0000,0.0000,0.0000,0.0000,0.0000,0.0000,0
2026-04-17,08:27:27,13676,1,-2.6160,0.0088,0.0180,0.5299,0.0009,0,1.0000,-327,1,-1.4143,-4.8003,23.5512,-0.2740,-175.6396,0.000,0.000,0.000,0.0000,0.0000,0.0000,0.0000,0.0000,0.0000,0
2026-04-17,08:27:27,13719,1,-2.6160,-0.0079,0.0199,0.5865,0.0009,0,1.0000,-327,1,-1.6380,-5.3762,23.7409,3.2871,-175.7329,0.000,0.000,0.000,0.0000,0.0000,0.0000,0.0000,0.0000,0.0000,0
2026-04-17,08:27:27,13763,1,-2.7200,-0.0118,0.0194,0.5698,0.0009,0,1.0000,-340,1,-1.7589,-2.9439,24.1274,7.1959,-175.7786,0.000,0.000,0.000,0.0000,0.0000,0.0000,0.0000,0.0000,0.0000,0
2026-04-17,08:27:27,13797,1,-2.7440,0.0050,0.0194,0.5699,0.0009,0,1.0000,-343,1,-1.8168,-1.5689,24.4021,7.6988,-175.8698,0.000,0.000,0.000,0.0000,0.0000,0.0000,0.0000,0.0000,0.0000,0
2026-04-17,08:27:27,13840,1,-2.7440,0.0077,0.0188,0.5524,0.0009,0,1.0000,-343,1,-1.8048,-0.3359,24.5063,3.5390,-176.0085,0.000,0.000,0.000,0.0000,0.0000,0.0000,0.0000,0.0000,0.0000,0
2026-04-17,08:27:27,13873,1,-2.7360,-0.0060,0.0194,0.5699,0.0009,0,1.0000,-342,1,-1.7810,0.5766,24.3619,-0.8372,-176.1797,0.000,0.000,0.000,0.0000,0.0000,0.0000,0.0000,0.0000,0.0000,0
2026-04-17,08:27:27,13917,1,-2.7360,0.0080,0.0182,0.5366,0.0009,0,1.0000,-342,1,-1.6083,3.8385,24.1148,-4.0876,-176.4098,0.000,0.000,0.000,0.0000,0.0000,0.0000,0.0000,0.0000,0.0000,0
2026-04-17,08:27:27,13960,1,-2.7360,-0.0133,0.0197,0.5782,0.0009,0,1.0000,-342,1,-1.5347,1.9592,23.9980,-3.3575,-176.6086,0.000,0.000,0.000,0.0000,0.0000,0.0000,0.0000,0.0000,0.0000,0
2026-04-17,08:27:27,13994,1,-2.7360,0.0143,0.0184,0.5416,0.0009,0,1.0000,-342,1,-1.4821,1.2667,24.0860,-0.1184,-176.6888,0.000,0.000,0.000,0.0000,0.0000,0.0000,0.0000,0.0000,0.0000,0
2026-04-17,08:27:27,14037,1,-2.7360,-0.0006,0.0188,0.5533,0.0009,0,1.0000,-342,1,-1.5869,-2.8652,24.1212,0.1691,-176.7561,0.000,0.000,0.000,0.0000,0.0000,0.0000,0.0000,0.0000,0.0000,0
2026-04-17,08:27:27,14075,1,-2.7440,-0.0183,0.0206,0.6073,0.0009,0,1.0000,-343,1,-1.6791,-3.2228,24.1428,0.0649,-176.7518,0.000,0.000,0.000,0.0000,0.0000,0.0000,0.0000,0.0000,0.0000,0
2026-04-17,08:27:27,14108,1,-2.7440,0.0059,0.0203,0.5956,0.0009,0,1.0000,-343,1,-1.7582,-2.0365,24.1722,0.7388,-176.7853,0.000,0.000,0.000,0.0000,0.0000,0.0000,0.0000,0.0000,0.0000,0
2026-04-17,08:27:27,14151,1,-2.7440,0.0036,0.0186,0.5465,0.0009,0,1.0000,-343,1,-1.8154,-2.3801,24.2295,0.6361,-176.8313,0.000,0.000,0.000,0.0000,0.0000,0.0000,0.0000,0.0000,0.0000,0
2026-04-17,08:27:27,14186,1,-2.8640,-0.0079,0.0203,0.5965,0.0009,0,1.0000,-358,1,-1.8737,-1.5100,24.1825,-0.5122,-176.8873,0.000,0.000,0.000,0.0000,0.0000,0.0000,0.0000,0.0000,0.0000,0
2026-04-17,08:27:27,14219,1,-2.8640,0.0052,0.0192,0.5641,0.0009,0,1.0000,-358,1,-1.8454,0.1822,23.9961,-3.7412,-176.9463,0.000,0.000,0.000,0.0000,0.0000,0.0000,0.0000,0.0000,0.0000,0
2026-04-17,08:27:27,14262,1,-2.8640,-0.0075,0.0179,0.5267,0.0009,0,1.0000,-358,1,-1.9000,-1.3745,23.7332,-4.9838,-176.9194,0.000,0.000,0.000,0.0000,0.0000,0.0000,0.0000,0.0000,0.0000,0
2026-04-17,08:27:27,14295,1,-3.3280,-0.0012,0.0186,0.5457,0.0009,0,1.0000,-416,1,-1.7856,2.9675,23.7186,-2.6300,-176.8811,0.000,0.000,0.000,0.0000,0.0000,0.0000,0.0000,0.0000,0.0000,0
2026-04-17,08:27:27,14328,1,-3.3280,-0.0047,0.0205,0.6015,0.0009,0,1.0000,-416,1,-1.7312,1.3688,23.6985,-1.6343,-176.8490,0.000,0.000,0.000,0.0000,0.0000,0.0000,0.0000,0.0000,0.0000,0
2026-04-17,08:27:28,14371,1,-3.3280,-0.0082,0.0190,0.5574,0.0009,0,1.0000,-416,1,-1.8482,-3.1589,23.7640,0.6669,-176.8102,0.000,0.000,0.000,0.0000,0.0000,0.0000,0.0000,0.0000,0.0000,0
2026-04-17,08:27:28,14405,1,-4.0560,-0.0012,0.0193,0.5682,0.0009,0,1.0000,-507,1,-1.8888,-1.4867,23.8967,2.6811,-176.8117,0.000,0.000,0.000,0.0000,0.0000,0.0000,0.0000,0.0000,0.0000,0
2026-04-17,08:27:28,14448,1,-4.0560,-0.0033,0.0197,0.5790,0.0009,0,1.0000,-507,1,-2.0079,-3.4646,24.0351,2.9393,-176.9309,0.000,0.000,0.000,0.0000,0.0000,0.0000,0.0000,0.0000,0.0000,0
2026-04-17,08:27:28,14481,1,-4.0880,-0.0043,0.0194,0.5699,0.0009,0,1.0000,-511,1,-2.1827,-4.8832,24.0515,1.4620,-176.9964,0.000,0.000,0.000,0.0000,0.0000,0.0000,0.0000,0.0000,0.0000,0
2026-04-17,08:27:28,14515,1,-4.0880,-0.0005,0.0195,0.5740,0.0009,0,1.0000,-511,1,-2.2189,-1.6167,23.9415,-1.1405,-177.0699,0.000,0.000,0.000,0.0000,0.0000,0.0000,0.0000,0.0000,0.0000,0
2026-04-17,08:27:28,14558,1,-4.0880,-0.0031,0.0205,0.6023,0.0009,0,1.0000,-511,1,-2.3280,-3.1095,23.9978,0.5978,-177.0964,0.000,0.000,0.000,0.0000,0.0000,0.0000,0.0000,0.0000,0.0000,0
2026-04-17,08:27:28,14591,1,-4.0880,-0.0020,0.0212,0.6231,0.0009,0,1.0000,-511,1,-2.4049,-2.3341,24.0550,1.1645,-177.0499,0.000,0.000,0.000,0.0000,0.0000,0.0000,0.0000,0.0000,0.0000,0
2026-04-17,08:27:28,14625,1,-4.0880,0.0007,0.0195,0.5740,0.0009,0,1.0000,-511,1,-2.4237,-1.2308,24.0596,0.3005,-176.9727,0.000,0.000,0.000,0.0000,0.0000,0.0000,0.0000,0.0000,0.0000,0
2026-04-17,08:27:28,14667,1,-4.0880,0.0053,0.0179,0.5258,0.0009,0,1.0000,-511,1,-2.5105,-2.1066,24.0814,0.4184,-176.9015,0.000,0.000,0.000,0.0000,0.0000,0.0000,0.0000,0.0000,0.0000,0
2026-04-17,08:27:28,14700,1,-4.0880,0.0064,0.0183,0.5375,0.0009,0,1.0000,-511,1,-2.5180,-0.0844,24.1156,0.8550,-176.9039,0.000,0.000,0.000,0.0000,0.0000,0.0000,0.0000,0.0000,0.0000,0
2026-04-17,08:27:28,14734,1,-4.0880,0.0121,0.0180,0.5307,0.0009,0,1.0000,-511,1,-2.4738,0.6043,24.2271,2.3365,-176.8944,0.000,0.000,0.000,0.0000,0.0000,0.0000,0.0000,0.0000,0.0000,0
2026-04-17,08:27:28,14777,1,-4.0880,0.0038,0.0186,0.5483,0.0009,0,1.0000,-511,1,-2.4217,2.1673,24.2752,1.6398,-176.9639,0.000,0.000,0.000,0.0000,0.0000,0.0000,0.0000,0.0000,0.0000,0
2026-04-17,08:27:28,14812,1,-4.0960,-0.0029,0.0194,0.5699,0.0009,0,1.0000,-512,1,-2.3468,1.8877,24.2826,0.7205,-177.0201,0.000,0.000,0.000,0.0000,0.0000,0.0000,0.0000,0.0000,0.0000,0
2026-04-17,08:27:28,14845,1,-4.0880,-0.0066,0.0192,0.5649,0.0009,0,1.0000,-511,1,-2.4028,-0.9126,24.1891,-1.4670,-177.0325,0.000,0.000,0.000,0.0000,0.0000,0.0000,0.0000,0.0000,0.0000,0
2026-04-17,08:27:28,14880,1,-4.0800,0.0015,0.0184,0.5416,0.0009,0,1.0000,-510,1,-2.3886,-0.3651,24.1806,-1.1906,-177.0166,0.000,0.000,0.000,0.0000,0.0000,0.0000,0.0000,0.0000,0.0000,0
2026-04-17,08:27:28,14914,1,-4.0880,0.0059,0.0182,0.5366,0.0009,0,1.0000,-511,1,-2.4343,-1.4622,24.1171,-1.7764,-177.0252,0.000,0.000,0.000,0.0000,0.0000,0.0000,0.0000,0.0000,0.0000,0
2026-04-17,08:27:28,14956,1,-4.0880,0.0003,0.0197,0.5807,0.0009,0,1.0000,-511,1,-2.4176,0.5643,23.9355,-3.6889,-176.9704,0.000,0.000,0.000,0.0000,0.0000,0.0000,0.0000,0.0000,0.0000,0
2026-04-17,08:27:28,14989,1,-4.0880,-0.0073,0.0192,0.5649,0.0009,0,1.0000,-511,1,-2.3744,1.1149,23.8592,-3.2830,-176.9462,0.000,0.000,0.000,0.0000,0.0000,0.0000,0.0000,0.0000,0.0000,0
2026-04-17,08:27:28,15022,1,-4.0960,-0.0055,0.0187,0.5506,0.0009,0,1.0000,-512,1,-2.3849,-0.9398,23.6629,-4.7284,-176.9568,0.000,0.000,0.000,0.0000,0.0000,0.0000,0.0000,0.0000,0.0000,0
2026-04-17,08:27:28,15055,1,-4.0960,-0.0048,0.0189,0.5565,0.0009,0,1.0000,-512,1,-2.4939,-3.0756,23.4260,-6.4584,-177.0225,0.000,0.000,0.000,0.0000,0.0000,0.0000,0.0000,0.0000,0.0000,0
2026-04-17,08:27:28,15099,1,-4.0880,-0.0120,0.0204,0.6006,0.0009,0,1.0000,-511,1,-2.6233,-2.9888,23.0951,-7.2031,-177.0218,0.000,0.000,0.000,0.0000,0.0000,0.0000,0.0000,0.0000,0.0000,0
2026-04-17,08:27:28,15132,1,-4.0800,-0.0079,0.0192,0.5641,0.0009,0,1.0000,-510,1,-2.6523,-0.8957,23.0143,-4.9273,-177.0196,0.000,0.000,0.000,0.0000,0.0000,0.0000,0.0000,0.0000,0.0000,0
2026-04-17,08:27:28,15165,1,-4.0880,-0.0045,0.0197,0.5799,0.0009,0,1.0000,-511,1,-2.6677,-0.2434,22.9357,-3.6116,-177.0493,0.000,0.000,0.000,0.0000,0.0000,0.0000,0.0000,0.0000,0.0000,0
2026-04-17,08:27:28,15199,1,-4.0880,0.0006,0.0205,0.6015,0.0009,0,1.0000,-511,1,-2.6549,0.6876,22.8797,-2.4970,-177.0310,0.000,0.000,0.000,0.0000,0.0000,0.0000,0.0000,0.0000,0.0000,0
2026-04-17,08:27:28,15242,1,-4.0880,-0.0049,0.0188,0.5532,0.0009,0,1.0000,-511,1,-2.6515,1.6846,23.1107,2.8817,-176.9322,0.000,0.000,0.000,0.0000,0.0000,0.0000,0.0000,0.0000,0.0000,0
2026-04-17,08:27:28,15275,1,-4.0880,-0.0120,0.0188,0.5516,0.0009,0,1.0000,-511,1,-2.6473,1.0584,23.1892,2.6274,-176.9257,0.000,0.000,0.000,0.0000,0.0000,0.0000,0.0000,0.0000,0.0000,0
2026-04-17,08:27:28,15308,1,-4.0880,-0.0050,0.0192,0.5657,0.0009,0,1.0000,-511,1,-2.5918,1.9123,23.2993,3.1595,-176.8565,0.000,0.000,0.000,0.0000,0.0000,0.0000,0.0000,0.0000,0.0000,0
2026-04-17,08:27:28,15341,1,-4.0880,0.0001,0.0190,0.5591,0.0009,0,1.0000,-511,1,-2.5940,0.0390,23.5037,4.9427,-176.8392,0.000,0.000,0.000,0.0000,0.0000,0.0000,0.0000,0.0000,0.0000,0
2026-04-17,08:27:29,15374,1,-4.0880,0.0000,0.0190,0.5590,0.0009,0,1.0000,-511,1,-2.6406,-1.9975,23.5375,2.4784,-176.8906,0.000,0.000,0.000,0.0000,0.0000,0.0000,0.0000,0.0000,0.0000,0
2026-04-17,08:27:29,15417,1,-4.0880,-0.0064,0.0193,0.5683,0.0009,0,1.0000,-511,1,-2.6939,-1.3062,23.2399,-4.3516,-176.9485,0.000,0.000,0.000,0.0000,0.0000,0.0000,0.0000,0.0000,0.0000,0
2026-04-17,08:27:29,15460,1,-4.0880,-0.0167,0.0239,0.7035,0.0011,0,1.0000,-511,1,-2.5954,4.5813,22.9857,-5.0112,-176.9433,0.000,0.000,0.000,0.0000,0.0000,0.0000,0.0000,0.0000,0.0000,0
2026-04-17,08:27:29,15505,1,-4.0880,0.0036,0.0252,0.7416,0.0012,0,1.0000,-511,1,-2.6756,-1.5916,23.1364,0.1256,-176.9838,0.000,0.000,0.000,0.0000,0.0000,0.0000,0.0000,0.0000,0.0000,0
2026-04-17,08:27:29,15540,1,-4.0880,-0.0144,0.0286,0.8402,0.0013,0,1.0000,-511,1,-2.5287,5.3643,23.3064,3.0023,-176.8294,0.000,0.000,0.000,0.0000,0.0000,0.0000,0.0000,0.0000,0.0000,0
2026-04-17,08:27:29,15583,1,-4.0880,-0.0738,0.0262,0.7701,0.0017,0,1.0000,-511,1,-2.5956,-3.3483,23.7504,7.5478,-176.8628,0.000,0.000,0.000,0.0000,0.0000,0.0000,0.0000,0.0000,0.0000,0
2026-04-17,08:27:29,15627,1,-4.0880,-0.2171,0.0225,0.6613,0.0028,0,1.0000,-511,1,-2.8298,-3.9471,24.1553,9.0611,-176.8400,0.000,0.000,0.000,0.0000,0.0000,0.0000,0.0000,0.0000,0.0000,0
2026-04-17,08:27:29,15669,1,-4.0880,-0.5479,0.0086,0.2516,0.0053,0,1.0000,-511,1,-3.6415,-29.3398,24.9533,16.1565,-163.2696,0.000,0.000,0.000,0.0000,0.0000,0.0000,0.0000,0.0000,0.0000,0
2026-04-17,08:27:29,15707,1,-4.0880,-0.0680,0.0507,1.4908,0.0068,0,1.0000,-511,1,-3.9662,-27.1612,25.3495,13.4766,-150.0289,0.040,0.000,0.000,0.0000,0.0000,0.0000,0.0000,0.0000,0.0000,0
2026-04-17,08:27:29,15740,1,-4.0880,-0.5264,0.0556,1.6348,0.0108,0,1.0000,-511,1,-4.6847,2.0023,25.4418,9.2964,-152.8070,0.040,0.000,0.000,0.0000,0.0000,0.0000,0.0000,0.0000,0.0000,0
2026-04-17,08:27:29,15783,1,-4.0880,-0.4947,0.0550,1.6186,0.0164,0,1.0000,-511,1,-4.3279,29.5000,26.0605,9.5522,-136.8371,0.060,0.000,0.000,0.0000,0.0000,0.0000,0.0000,0.0000,0.0000,0
2026-04-17,08:27:29,15816,1,-4.0960,-0.8977,-0.0225,0.6630,0.0199,0,1.0000,-512,1,-5.0355,-23.7508,25.6652,-2.6760,-128.1042,0.030,0.000,0.000,0.0000,0.0000,0.0000,0.0000,0.0000,0.0000,0
2026-04-17,08:27:29,15850,1,-4.0960,-0.5403,-0.0022,0.0650,0.0235,0,1.0000,-512,1,-3.4967,20.7642,25.7783,1.7830,-119.3044,0.000,0.000,0.000,0.0000,0.0000,0.0000,0.0000,0.0000,0.0000,0
2026-04-17,08:27:29,15892,1,-4.0960,-0.7475,-0.0360,1.0594,0.0291,0,1.0000,-512,1,-2.7441,5.0500,25.6797,-0.5002,-101.3387,0.000,0.000,0.000,0.0000,0.0000,0.0000,0.0000,0.0000,0.0000,0
2026-04-17,08:27:29,15926,1,-4.0880,-0.2198,0.0329,0.9675,0.0338,0,1.0000,-511,1,-2.6698,11.4506,25.5374,-1.6760,-103.2527,0.000,0.000,0.000,0.0000,0.0000,0.0000,0.0000,0.0000,0.0000,0
2026-04-17,08:27:29,15969,1,-4.0880,-0.1443,0.0256,0.7531,0.0362,0,1.0000,-511,1,-2.2782,18.3337,25.8243,2.3284,-94.6196,0.000,0.000,0.000,0.0000,0.0000,0.0000,0.0000,0.0000,0.0000,0
2026-04-17,08:27:29,16012,1,-4.0880,0.0032,0.0250,0.7353,0.0363,0,1.0000,-511,1,-0.6861,29.2760,25.5644,-3.2458,-107.0746,0.000,0.000,0.000,0.0000,0.0000,0.0000,0.0000,0.0000,0.0000,0
2026-04-17,08:27:29,16046,1,-4.0880,0.0022,0.0268,0.7876,0.0363,0,1.0000,-511,1,-1.1401,-13.4214,25.4443,-3.7886,-101.0645,0.000,0.000,0.000,0.0000,0.0000,0.0000,0.0000,0.0000,0.0000,0
2026-04-17,08:27:29,16079,1,-4.0880,-0.0191,0.0270,0.7938,0.0363,0,1.0000,-511,1,-2.1982,-27.4754,25.0780,-8.2446,-103.3060,0.000,0.000,0.000,0.0000,0.0000,0.0000,0.0000,0.0000,0.0000,0
2026-04-17,08:27:29,16123,1,-4.0880,-0.1013,0.0300,0.8826,0.0368,0,1.0000,-511,1,-2.3243,-2.9958,24.2963,-14.7431,-114.4407,0.080,0.000,0.000,0.0000,0.0000,0.0000,0.0000,0.0000,0.0000,0
2026-04-17,08:27:29,16157,1,-4.0880,-0.1446,0.0483,1.4202,0.0380,0,1.0000,-511,1,-2.1913,-1.9952,24.0188,-10.1166,-121.3159,0.080,0.000,0.000,0.0000,0.0000,0.0000,0.0000,0.0000,0.0000,0
2026-04-17,08:27:29,16190,1,-4.0880,-0.4214,0.0546,1.6067,0.0412,0,1.0000,-511,1,-2.7428,4.2119,24.2481,-0.2831,-127.4682,0.080,0.000,0.000,0.0000,0.0000,0.0000,0.0000,0.0000,0.0000,0
2026-04-17,08:27:29,16223,1,-4.0880,-0.9090,-0.0144,0.4245,0.0446,0,1.0000,-511,1,-3.7498,-34.7010,24.4723,2.8428,-119.4373,0.080,0.000,0.000,0.0000,0.0000,0.0000,0.0000,0.0000,0.0000,0
2026-04-17,08:27:29,16266,1,-4.0880,-0.4662,0.0057,0.1664,0.0483,0,1.0000,-511,1,-2.7210,6.3291,24.6614,4.4195,-120.8424,0.070,0.000,0.000,0.0000,0.0000,0.0000,0.0000,0.0000,0.0000,0
2026-04-17,08:27:29,16299,1,-4.0880,-0.3115,0.0082,0.2409,0.0501,0,1.0000,-511,1,-2.3671,-2.0649,24.4947,-1.0531,-127.2732,0.040,0.000,0.000,0.0000,0.0000,0.0000,0.0000,0.0000,0.0000,0
2026-04-17,08:27:29,16332,1,-4.0880,-0.1435,0.0348,1.0241,0.0521,0,1.0000,-511,1,-1.7684,17.5640,24.2330,-4.2856,-132.8349,0.010,0.000,0.000,0.0000,0.0000,0.0000,0.0000,0.0000,0.0000,0
2026-04-17,08:27:30,16376,1,-4.0880,-0.0376,0.0332,0.9777,0.0535,0,1.0000,-511,1,-1.5409,6.4186,24.2138,-1.9643,-139.6599,0.000,0.000,0.000,0.0000,0.0000,0.0000,0.0000,0.0000,0.0000,0
2026-04-17,08:27:30,16409,1,-4.0880,-0.0772,0.0271,0.7970,0.0542,0,1.0000,-511,1,-1.8448,-2.7792,24.0018,-4.7121,-144.1957,0.000,0.000,0.000,0.0000,0.0000,0.0000,0.0000,0.0000,0.0000,0
2026-04-17,08:27:30,16442,1,-4.0880,-0.0622,0.0319,0.9380,0.0546,0,1.0000,-511,1,-1.6660,3.3768,23.5082,-10.6842,-148.1749,0.000,0.000,0.000,0.0000,0.0000,0.0000,0.0000,0.0000,0.0000,0
2026-04-17,08:27:30,16475,1,-4.0880,-0.1346,0.0187,0.5490,0.0551,0,1.0000,-511,1,-2.0090,-9.3943,22.8581,-15.8441,-151.5742,0.000,0.000,0.000,0.0000,0.0000,0.0000,0.0000,0.0000,0.0000,0
2026-04-17,08:27:30,16513,1,-4.0880,-0.0423,0.0376,1.1062,0.0557,0,1.0000,-511,1,-2.0858,-10.0387,22.5563,-14.0502,-152.9852,0.000,0.000,0.000,0.0000,0.0000,0.0000,0.0000,0.0000,0.0000,0
2026-04-17,08:27:30,16546,1,-4.0880,-0.1372,0.0368,1.0821,0.0568,0,1.0000,-511,1,-2.6097,-8.6575,22.0732,-14.7820,-155.6687,0.020,0.000,0.000,0.0000,0.0000,0.0000,0.0000,0.0000,0.0000,0
2026-04-17,08:27:30,16579,1,-4.0880,-0.4073,0.0122,0.3583,0.0584,0,1.0000,-511,1,-3.1679,-13.5316,21.6857,-13.3542,-157.9859,0.020,0.000,0.000,0.0000,0.0000,0.0000,0.0000,0.0000,0.0000,0
2026-04-17,08:27:30,16612,1,-4.0880,0.0134,0.0171,0.5015,0.0589,0,1.0000,-511,1,-2.7989,-0.0607,21.5566,-8.0693,-159.9161,0.050,0.000,0.000,0.0000,0.0000,0.0000,0.0000,0.0000,0.0000,0
2026-04-17,08:27:30,16646,1,-4.0880,0.0151,0.0171,0.5015,0.0589,0,1.0000,-511,1,-2.8914,-1.0397,21.4130,-6.0494,-161.8652,0.020,0.000,0.000,0.0000,0.0000,0.0000,0.0000,0.0000,0.0000,0
2026-04-17,08:27:30,16680,1,-4.0880,-0.0091,0.0188,0.5530,0.0589,0,1.0000,-511,1,-2.8093,-3.4391,21.0932,-7.5054,-157.0296,0.000,0.000,0.000,0.0000,0.0000,0.0000,0.0000,0.0000,0.0000,0
2026-04-17,08:27:30,16724,1,-4.0880,0.0028,0.0176,0.5191,0.0588,0,1.0000,-511,1,-2.5187,5.4614,20.9180,-4.3961,-160.0273,0.000,0.000,0.000,0.0000,0.0000,0.0000,0.0000,0.0000,0.0000,0
2026-04-17,08:27:30,16767,1,-4.0880,-0.0002,0.0183,0.5377,0.0588,0,1.0000,-511,1,-2.0661,13.9512,21.1072,2.2862,-162.5697,0.000,0.000,0.000,0.0000,0.0000,0.0000,0.0000,0.0000,0.0000,0
2026-04-17,08:27:30,16810,1,-4.0880,-0.0021,0.0185,0.5453,0.0589,0,1.0000,-511,1,-1.7972,3.0822,21.1467,1.3826,-165.0311,0.000,0.000,0.000,0.0000,0.0000,0.0000,0.0000,0.0000,0.0000,0
2026-04-17,08:27:30,16843,1,-4.0880,-0.0114,0.0193,0.5685,0.0589,0,1.0000,-511,1,-1.9984,-4.9894,20.7248,-6.2556,-146.6200,0.000,0.000,0.000,0.0000,0.0000,0.0000,0.0000,0.0000,0.0000,0
2026-04-17,08:27:30,16887,1,-4.0880,-0.0165,0.0192,0.5640,0.0589,0,1.0000,-511,1,-1.5288,13.0326,20.0228,-11.4295,-151.1472,0.000,0.000,0.000,0.0000,0.0000,0.0000,0.0000,0.0000,0.0000,0
2026-04-17,08:27:30,16930,1,-4.0880,-0.0058,0.0190,0.5583,0.0589,0,1.0000,-511,1,-1.2714,3.1513,19.7764,-6.7176,-154.8644,0.000,0.000,0.000,0.0000,0.0000,0.0000,0.0000,0.0000,0.0000,0
2026-04-17,08:27:30,16964,1,-4.0880,-0.0143,0.0214,0.6300,0.0590,0,1.0000,-511,1,-1.2155,1.2177,19.7785,-2.5010,-157.2421,0.000,0.000,0.000,0.0000,0.0000,0.0000,0.0000,0.0000,0.0000,0
2026-04-17,08:27:30,17007,1,-4.0880,-0.0313,0.0278,0.8164,0.0593,0,1.0000,-511,1,-1.1784,-1.4376,19.9925,3.1831,-159.9627,0.000,0.000,0.000,0.0000,0.0000,0.0000,0.0000,0.0000,0.0000,0
2026-04-17,08:27:30,17041,1,-4.0800,-0.0223,0.0315,0.9279,0.0595,0,1.0000,-510,1,-1.2564,-4.5528,20.1157,3.5565,-161.7807,0.000,0.000,0.000,0.0000,0.0000,0.0000,0.0000,0.0000,0.0000,0
2026-04-17,08:27:30,17074,1,-4.0800,-0.0612,0.0321,0.9430,0.0601,0,1.0000,-510,1,-1.7520,-14.7919,19.9527,-0.7835,-163.3140,0.000,0.000,0.000,0.0000,0.0000,0.0000,0.0000,0.0000,0.0000,0
2026-04-17,08:27:30,17117,1,-4.0800,-0.0517,0.0333,0.9780,0.0608,0,1.0000,-510,1,-3.4411,-39.5143,19.9062,-2.0269,-164.9369,0.020,0.000,0.000,0.0000,0.0000,0.0000,0.0000,0.0000,0.0000,0
2026-04-17,08:27:30,17160,1,-4.0880,-0.1262,0.0375,1.1042,0.0618,0,1.0000,-511,1,-4.7068,-24.0116,19.2745,-11.7179,-153.5857,0.040,0.000,0.000,0.0000,0.0000,0.0000,0.0000,0.0000,0.0000,0
2026-04-17,08:27:30,17193,1,-4.0880,-0.4150,0.0154,0.4517,0.0634,0,1.0000,-511,1,-5.5278,-23.1697,18.5213,-18.7719,-155.3617,0.040,0.000,0.000,0.0000,0.0000,0.0000,0.0000,0.0000,0.0000,0
2026-04-17,08:27:30,17236,1,-4.0880,-0.5127,0.0162,0.4778,0.0660,0,1.0000,-511,1,-6.1443,-29.3926,17.6419,-22.2582,-157.1471,0.060,0.000,0.000,0.0000,0.0000,0.0000,0.0000,0.0000,0.0000,0
2026-04-17,08:27:30,17270,1,-4.0880,-0.5551,-0.0022,0.0654,0.0684,0,1.0000,-511,1,-6.8625,-40.6629,16.7079,-27.0556,-158.2642,0.090,0.000,0.000,0.0000,0.0000,0.0000,0.0000,0.0000,0.0000,0
2026-04-17,08:27:30,17313,1,-4.0880,-0.9619,-0.0368,1.0829,0.0746,0,1.0000,-511,1,-7.1278,-20.7566,15.2344,-31.8595,-159.5045,0.140,0.000,0.000,0.0000,0.0000,0.0000,0.0000,0.0000,0.0000,0
2026-04-17,08:27:30,17348,1,-4.0720,-0.5944,0.0377,1.1086,0.0808,0,1.0000,-509,1,-6.9323,-9.4948,14.9250,-26.8792,-159.8296,0.150,0.000,0.000,0.0000,0.0000,0.0000,0.0000,0.0000,0.0000,0
2026-04-17,08:27:31,17381,1,-4.0720,-0.5329,-0.0162,0.4771,0.0832,0,1.0000,-509,1,-7.6944,-42.0911,14.5369,-21.5353,-161.5126,0.150,0.000,0.000,0.0000,0.0000,0.0000,0.0000,0.0000,0.0000,0
2026-04-17,08:27:31,17424,1,-4.0720,-0.4014,0.0361,1.0603,0.0858,0,1.0000,-509,1,-8.2071,-3.2459,12.4822,-40.6076,-164.4000,0.200,0.000,0.000,0.0000,0.0000,0.0000,0.0000,0.0000,0.0000,0
2026-04-17,08:27:31,17457,1,-4.0880,-0.1335,0.0289,0.8498,0.0872,0,1.0000,-511,1,-5.9496,64.0252,10.9136,-44.1329,-165.9407,0.170,0.000,0.000,0.0000,0.0000,0.0000,0.0000,0.0000,0.0000,0
2026-04-17,08:27:31,17502,1,-4.0880,-0.2802,0.0214,0.6281,0.0888,0,1.0000,-511,1,-5.9593,0.6828,10.2731,-23.6095,-167.6870,0.130,0.000,0.000,0.0000,0.0000,0.0000,0.0000,0.0000,0.0000,0
2026-04-17,08:27:31,17534,1,-4.0880,-0.0780,0.0241,0.7076,0.0893,0,1.0000,-511,1,-4.7680,32.1905,10.5864,-4.9650,-169.0136,0.100,0.000,0.000,0.0000,0.0000,0.0000,0.0000,0.0000,0.0000,0
2026-04-17,08:27:31,17568,1,-4.0880,-0.0017,0.0277,0.8156,0.0895,0,1.0000,-511,1,-3.8996,24.3125,11.1051,6.0866,-135.7460,0.070,0.000,0.000,0.0000,0.0000,0.0000,0.0000,0.0000,0.0000,0
2026-04-17,08:27:31,17601,1,-4.0880,-0.0096,0.0271,0.7983,0.0895,0,1.0000,-511,1,-3.8396,3.6596,11.7318,13.5603,-127.4496,0.040,0.000,0.000,0.0000,0.0000,0.0000,0.0000,0.0000,0.0000,0
2026-04-17,08:27:31,17644,1,-4.0880,-0.0934,0.0322,0.9460,0.0899,0,1.0000,-511,1,-4.4313,-14.4251,12.7516,21.3565,-134.3845,0.000,0.000,0.000,0.0000,0.0000,0.0000,0.0000,0.0000,0.0000,0
2026-04-17,08:27:31,17678,1,-4.0880,-0.1154,0.0361,1.0613,0.0909,0,1.0000,-511,1,-4.8298,-8.3238,13.5986,23.5206,-138.5235,0.000,0.000,0.000,0.0000,0.0000,0.0000,0.0000,0.0000,0.0000,0
2026-04-17,08:27:31,17721,1,-4.0880,-0.1321,0.0401,1.1790,0.0926,0,1.0000,-511,1,-4.4250,12.5037,14.1230,15.1624,-143.2622,0.000,0.000,0.000,0.0000,0.0000,0.0000,0.0000,0.0000,0.0000,0
,,17764,1,-4.0880,-0.1672,0.0389,1.1453,0.0952,0,1.0000,-511,1,-4.9307,-2.1934,13.7526,-1.4928,-147.3760,0.000,0.000,0.000,0.0000,0.0000,0.0000,0.0000,0.0000,0.0000,0
2026-04-17,08:27:31,17798,1,-4.0880,-0.4578,0.0236,0.6928,0.0971,0,1.0000,-511,1,-5.0670,-7.3485,13.6481,-2.7856,-150.2871,0.000,0.000,0.000,0.0000,0.0000,0.0000,0.0000,0.0000,0.0000,0
2026-04-17,08:27:31,17831,1,-4.0880,-0.5570,0.0056,0.1648,0.0992,0,1.0000,-511,1,-5.1588,-17.6214,13.3676,-6.4628,-153.2109,0.000,0.000,0.000,0.0000,0.0000,0.0000,0.0000,0.0000,0.0000,0
2026-04-17,08:27:31,17864,1,-4.0880,-0.2288,0.0543,1.5960,0.1030,0,1.0000,-511,1,-4.9260,9.6305,12.9901,-8.7463,-155.8858,0.010,0.000,0.000,0.0000,0.0000,0.0000,0.0000,0.0000,0.0000,0
2026-04-17,08:27:31,17907,1,-4.0880,-0.0326,0.0360,1.0584,0.1088,0,1.0000,-511,1,-4.6564,33.6289,12.5375,-9.1287,-158.8667,0.010,0.000,0.000,0.0000,0.0000,0.0000,0.0000,0.0000,0.0000,0
2026-04-17,08:27:31,17950,1,-4.0880,-0.2243,-0.0002,0.0050,0.1122,0,1.0000,-511,1,-4.7745,7.0368,12.2304,-8.7744,-161.6247,0.000,0.000,0.000,0.0000,0.0000,0.0000,0.0000,0.0000,0.0000,0
2026-04-17,08:27:31,17993,1,-4.0880,-0.1985,0.0131,0.3841,0.1145,0,1.0000,-511,1,-3.7020,26.8291,12.0370,-4.8594,-163.9558,0.000,0.000,0.000,0.0000,0.0000,0.0000,0.0000,0.0000,0.0000,0
2026-04-17,08:27:31,18036,1,-4.0880,-0.0071,0.0265,0.7782,0.1150,0,1.0000,-511,1,-3.3521,5.7412,12.1402,-0.3832,-165.9989,0.000,0.000,0.000,0.0000,0.0000,0.0000,0.0000,0.0000,0.0000,0
2026-04-17,08:27:31,18080,1,-4.0880,-0.0052,0.0252,0.7406,0.1150,0,1.0000,-511,1,-3.7505,-7.0668,11.9242,-3.5246,-167.7715,0.000,0.000,0.000,0.0000,0.0000,0.0000,0.0000,0.0000,0.0000,0
2026-04-17,08:27:31,18123,1,-4.0880,-0.0417,0.0303,0.8904,0.1151,0,1.0000,-511,1,-3.9830,-3.1239,11.6419,-5.3651,-168.7786,0.000,0.000,0.000,0.0000,0.0000,0.0000,0.0000,0.0000,0.0000,0
2026-04-17,08:27:31,18168,1,-4.0880,-0.0244,0.0302,0.8893,0.1155,0,1.0000,-511,1,-4.4019,-8.2172,11.3356,-6.6853,-169.2854,0.020,0.000,0.000,0.0000,0.0000,0.0000,0.0000,0.0000,0.0000,0
2026-04-17,08:27:31,18211,1,-4.0880,-0.1610,0.0257,0.7550,0.1162,0,1.0000,-511,1,-4.2485,2.2080,10.6850,-9.8699,-169.3119,0.020,0.000,0.000,0.0000,0.0000,0.0000,0.0000,0.0000,0.0000,0
2026-04-17,08:27:31,18244,1,-4.0880,-0.2935,0.0151,0.4434,0.1174,0,1.0000,-511,1,-4.2824,-8.4617,10.3704,-9.5797,-169.5224,0.000,0.000,0.000,0.0000,0.0000,0.0000,0.0000,0.0000,0.0000,0
2026-04-17,08:27:31,18277,1,-4.0880,-0.0945,0.0368,1.0824,0.1189,0,1.0000,-511,1,-4.3753,1.0294,10.1668,-7.2436,-169.8580,0.000,0.000,0.000,0.0000,0.0000,0.0000,0.0000,0.0000,0.0000,0
2026-04-17,08:27:31,18321,1,-4.0880,-0.1151,0.0426,1.2536,0.1212,0,1.0000,-511,1,-3.9409,13.6916,10.4183,1.9021,-170.6056,0.000,0.000,0.000,0.0000,0.0000,0.0000,0.0000,0.0000,0.0000,0
2026-04-17,08:27:32,18363,1,-4.0880,-0.0683,0.0299,0.8788,0.1234,0,1.0000,-511,1,-4.0676,6.7249,10.4410,0.1916,-171.5450,0.000,0.000,0.000,0.0000,0.0000,0.0000,0.0000,0.0000,0.0000,0
2026-04-17,08:27:32,18397,1,-4.0880,-0.0285,0.0348,1.0225,0.1242,0,1.0000,-511,1,-4.3485,-7.0800,10.2909,-2.3319,-172.1670,0.000,0.000,0.000,0.0000,0.0000,0.0000,0.0000,0.0000,0.0000,0
2026-04-17,08:27:32,18440,1,-4.0880,-0.0966,0.0345,1.0140,0.1255,0,1.0000,-511,1,-4.7624,-0.0221,10.1496,-2.5454,-172.6082,0.040,0.000,0.000,0.0000,0.0000,0.0000,0.0000,0.0000,0.0000,0
2026-04-17,08:27:32,18483,1,-4.0880,-0.1636,0.0398,1.1693,0.1275,0,1.0000,-511,1,-5.5328,-10.8974,10.1705,-0.2381,-172.6771,0.090,0.000,0.000,0.0000,0.0000,0.0000,0.0000,0.0000,0.0000,0
2026-04-17,08:27:32,18526,1,-4.0880,-0.1587,0.0461,1.3564,0.1304,0,1.0000,-511,1,-5.3535,14.9663,9.8904,-4.9091,-172.3621,0.110,0.000,0.000,0.0000,0.0000,0.0000,0.0000,0.0000,0.0000,0
2026-04-17,08:27:32,18569,1,-4.0880,-0.3326,0.0599,1.7616,0.1342,0,1.0000,-511,1,-5.4462,5.5171,9.8418,-2.5482,-172.2088,0.070,0.000,0.000,0.0000,0.0000,0.0000,0.0000,0.0000,0.0000,0
2026-04-17,08:27:32,18604,1,-4.0880,-1.1718,-0.0175,0.5138,0.1391,0,1.0000,-511,1,-6.6644,-51.9343,9.7289,-4.2901,-172.5736,0.040,0.000,0.000,0.0000,0.0000,0.0000,0.0000,0.0000,0.0000,0
2026-04-17,08:27:32,18637,1,-4.0880,-0.8489,-0.0044,0.1308,0.1426,0,1.0000,-511,1,-5.8045,-2.6109,9.3650,-7.1954,-172.6048,0.040,0.000,0.000,0.0000,0.0000,0.0000,0.0000,0.0000,0.0000,0
2026-04-17,08:27:32,18681,1,-4.0880,-1.2649,0.0020,0.0589,0.1495,0,1.0000,-511,1,-7.1973,-51.2606,8.8860,-11.1264,-166.4477,0.030,0.000,0.000,0.0000,0.0000,0.0000,0.0000,0.0000,0.0000,0
2026-04-17,08:27:32,18724,1,-4.0880,-0.3500,0.0424,1.2481,0.1523,0,1.0000,-511,1,-5.6491,55.3471,7.8051,-17.4482,-167.7498,0.000,0.000,0.000,0.0000,0.0000,0.0000,0.0000,0.0000,0.0000,0
2026-04-17,08:27:32,18757,1,-4.0880,-0.2390,-0.0163,0.4796,0.1537,0,1.0000,-511,1,-5.7379,-3.4956,7.9539,-6.4437,-168.8181,0.000,0.000,0.000,0.0000,0.0000,0.0000,0.0000,0.0000,0.0000,0
2026-04-17,08:27:32,18790,1,-4.0880,-0.0694,0.0139,0.4084,0.1544,0,1.0000,-511,1,-5.6599,7.2240,7.6175,-8.5307,-169.7784,0.000,0.000,0.000,0.0000,0.0000,0.0000,0.0000,0.0000,0.0000,0
2026-04-17,08:27:32,18833,1,-4.0880,-0.0244,0.0192,0.5645,0.1548,0,1.0000,-511,1,-5.2011,10.5129,7.5047,-4.3116,-170.8306,0.000,0.000,0.000,0.0000,0.0000,0.0000,0.0000,0.0000,0.0000,0
