Date,Time,Timestamp_ms,Kite_ID,Commanded_Vel_rps,Actual_Vel_rps,Torque_Nm,Tension_N,Line_Length_m,Target_Enabled,Target_Length_m,Remote_Joy,Remote_Active,Pitch_deg,Pitch_Vel_dps,Yaw_deg,Yaw_Vel_dps,Roll_deg,Dive_Conf,AWW_Conf,AF_Conf,Kite_Pitch_deg,Kite_Roll_deg,Kite_Yaw_deg,Kite_Gyro_X,Kite_Gyro_Y,Kite_Gyro_Z,Kite_IMU_Battery
2026-04-17,14:49:00,0,1,7.9920,7.9572,0.1359,3.9968,11.9701,0,1.0000,999,1,11.8536,1.9212,-5.3869,-3.2601,170.1606,0.000,0.000,0.528,0.0000,0.0000,0.0000,0.0000,0.0000,0.0000,0
2026-04-17,14:49:00,1,1,7.9920,7.8057,0.1583,4.6550,11.9141,0,1.0000,999,1,10.3817,-25.2754,-5.9165,-7.2177,170.1053,0.000,0.000,0.552,0.0000,0.0000,0.0000,0.0000,0.0000,0.0000,0
2026-04-17,14:49:00,2,1,7.9920,7.7359,0.2097,6.1680,11.8444,0,1.0000,999,1,9.8168,-10.9885,-6.1971,-6.7308,170.1943,0.032,0.000,0.584,0.0000,0.0000,0.0000,0.0000,0.0000,0.0000,0
2026-04-17,14:49:00,3,1,7.9920,7.9122,0.2120,6.2356,11.7898,0,1.0000,999,1,10.7266,10.9230,-6.3241,-5.8816,170.2284,0.032,0.000,0.608,0.0000,0.0000,0.0000,0.0000,0.0000,0.0000,0
2026-04-17,14:49:00,4,1,7.9920,8.1562,0.1849,5.4377,11.7313,0,1.0000,999,1,10.8705,6.2901,-6.6056,-6.6362,170.1540,0.008,0.000,0.632,0.0000,0.0000,0.0000,0.0000,0.0000,0.0000,0
2026-04-17,14:49:00,4,1,7.9920,8.2704,0.1378,4.0539,11.6567,0,1.0000,999,1,11.6148,15.9322,-6.5615,-3.4053,170.2208,0.000,0.000,0.664,0.0000,0.0000,0.0000,0.0000,0.0000,0.0000,0
2026-04-17,14:49:00,5,1,7.9920,7.9998,0.1253,3.6864,11.5981,0,1.0000,999,1,12.3047,17.9742,-6.4212,-0.9896,170.1927,0.000,0.000,0.688,0.0000,0.0000,0.0000,0.0000,0.0000,0.0000,0
2026-04-17,14:49:00,6,1,7.9920,7.9432,0.1323,3.8900,11.5408,0,1.0000,999,1,12.5669,12.1116,-6.3686,-0.2255,170.1507,0.000,0.000,0.712,0.0000,0.0000,0.0000,0.0000,0.0000,0.0000,0
2026-04-17,14:49:00,7,1,7.9920,7.9748,0.1409,4.1441,11.4702,0,1.0000,999,1,11.5602,-12.9153,-6.6998,-3.3798,170.1072,0.000,0.000,0.744,0.0000,0.0000,0.0000,0.0000,0.0000,0.0000,0
2026-04-17,14:49:00,8,1,7.9920,7.9045,0.1600,4.7048,11.4131,0,1.0000,999,1,11.3944,-6.8121,-6.8893,-3.9582,170.0812,0.000,0.000,0.768,0.0000,0.0000,0.0000,0.0000,0.0000,0.0000,0
2026-04-17,14:49:00,8,1,7.9920,7.8706,0.1912,5.6238,11.3411,0,1.0000,999,1,11.5485,0.4902,-6.7685,-1.1285,170.0623,0.000,0.000,0.800,0.0000,0.0000,0.0000,0.0000,0.0000,0.0000,0
2026-04-17,14:49:00,9,1,7.9920,8.1609,0.1546,4.5457,11.2723,0,1.0000,999,1,12.1741,11.6537,-6.3905,3.4643,170.2697,0.000,0.000,0.832,0.0000,0.0000,0.0000,0.0000,0.0000,0.0000,0
2026-04-17,14:49:00,9,1,7.9920,8.0671,0.1404,4.1287,11.2011,0,1.0000,999,1,13.3042,21.8608,-6.2014,3.7109,170.1425,0.000,0.000,0.864,0.0000,0.0000,0.0000,0.0000,0.0000,0.0000,0
2026-04-17,14:49:00,10,1,7.9920,7.9862,0.1342,3.9459,11.1290,0,1.0000,999,1,14.0574,18.9304,-6.2625,1.5725,170.0359,0.000,0.000,0.896,0.0000,0.0000,0.0000,0.0000,0.0000,0.0000,0
2026-04-17,14:49:00,12,1,7.9920,7.9837,0.1421,4.1791,11.0725,0,1.0000,999,1,13.6163,-0.0424,-6.4608,-0.8346,170.0308,0.000,0.000,0.920,0.0000,0.0000,0.0000,0.0000,0.0000,0.0000,0
2026-04-17,14:49:00,13,1,7.9920,7.8609,0.1591,4.6804,11.0164,0,1.0000,999,1,13.6924,3.1124,-6.5144,-0.9789,169.9725,0.000,0.000,0.944,0.0000,0.0000,0.0000,0.0000,0.0000,0.0000,0
2026-04-17,14:49:00,14,1,7.9920,7.9839,0.1676,4.9286,10.9472,0,1.0000,999,1,14.5241,13.8183,-6.3039,1.4751,170.1900,0.000,0.000,0.976,0.0000,0.0000,0.0000,0.0000,0.0000,0.0000,0
2026-04-17,14:49:00,14,1,7.9920,8.0695,0.1598,4.6988,10.8908,0,1.0000,999,1,14.7549,9.9226,-6.0970,3.0076,170.3811,0.000,0.000,1.000,0.0000,0.0000,0.0000,0.0000,0.0000,0.0000,0
2026-04-17,14:49:00,15,1,7.9920,8.0995,0.1551,4.5630,10.8329,0,1.0000,999,1,15.1583,11.2102,-5.8660,4.2049,170.3716,0.000,0.000,1.000,0.0000,0.0000,0.0000,0.0000,0.0000,0.0000,0
2026-04-17,14:49:00,15,1,7.9920,8.0535,0.1512,4.4461,10.7606,0,1.0000,999,1,15.5760,9.6855,-5.5978,5.1096,170.5711,0.000,0.000,1.000,0.0000,0.0000,0.0000,0.0000,0.0000,0.0000,0
2026-04-17,14:49:00,16,1,7.9920,7.9181,0.1493,4.3916,10.7017,0,1.0000,999,1,15.6958,5.1525,-5.4446,4.7884,170.7054,0.000,0.000,1.000,0.0000,0.0000,0.0000,0.0000,0.0000,0.0000,0
2026-04-17,14:49:00,17,1,7.9920,8.0252,0.1525,4.4844,10.6280,0,1.0000,999,1,15.9172,6.9556,-5.4422,3.0110,170.6778,0.000,0.000,1.000,0.0000,0.0000,0.0000,0.0000,0.0000,0.0000,0
2026-04-17,14:49:00,45,1,7.9920,7.9545,0.1424,4.1876,10.5704,0,1.0000,999,1,16.6288,14.7293,-5.3912,2.5025,170.5961,0.000,0.000,1.000,0.0000,0.0000,0.0000,0.0000,0.0000,0.0000,0
2026-04-17,14:49:00,46,1,7.9920,7.9311,0.1616,4.7519,10.5144,0,1.0000,999,1,15.9645,-5.9388,-5.5322,0.3696,170.6254,0.000,0.000,1.000,0.0000,0.0000,0.0000,0.0000,0.0000,0.0000,0
2026-04-17,14:49:00,47,1,7.9920,8.0603,0.1539,4.5268,10.4420,0,1.0000,999,1,16.5522,12.3284,-5.4614,1.0784,170.6668,0.000,0.000,1.000,0.0000,0.0000,0.0000,0.0000,0.0000,0.0000,0
2026-04-17,14:49:00,47,1,7.9920,8.0819,0.1506,4.4289,10.3844,0,1.0000,999,1,17.5830,22.4168,-5.2792,2.4374,170.7554,0.000,0.000,1.000,0.0000,0.0000,0.0000,0.0000,0.0000,0.0000,0
2026-04-17,14:49:00,48,1,7.9920,8.0532,0.1226,3.6055,10.3258,0,1.0000,999,1,18.3086,22.6202,-5.1035,3.3974,170.8295,0.000,0.000,1.000,0.0000,0.0000,0.0000,0.0000,0.0000,0.0000,0
2026-04-17,14:49:00,49,1,7.9920,7.9422,0.1445,4.2504,10.2552,0,1.0000,999,1,18.7715,12.4467,-5.0554,2.3455,171.0184,0.000,0.000,1.000,0.0000,0.0000,0.0000,0.0000,0.0000,0.0000,0
2026-04-17,14:49:00,49,1,7.9920,7.9239,0.1584,4.6603,10.2004,0,1.0000,999,1,18.4244,-0.7135,-5.1682,0.4937,171.0110,0.000,0.000,1.000,0.0000,0.0000,0.0000,0.0000,0.0000,0.0000,0
2026-04-17,14:49:00,50,1,7.9920,7.9731,0.1492,4.3879,10.1422,0,1.0000,999,1,18.5244,2.3425,-5.2737,-0.6255,171.0201,0.000,0.000,1.000,0.0000,0.0000,0.0000,0.0000,0.0000,0.0000,0
2026-04-17,14:49:00,51,1,7.9920,7.9605,0.1720,5.0574,10.0857,0,1.0000,999,1,18.9806,9.3745,-5.2582,-0.2529,171.0113,0.000,0.000,1.000,0.0000,0.0000,0.0000,0.0000,0.0000,0.0000,0
2026-04-17,14:49:00,52,1,7.9920,7.9235,0.1699,4.9983,10.0307,0,1.0000,999,1,19.6949,16.4360,-5.2058,0.2736,171.0831,0.000,0.000,1.000,0.0000,0.0000,0.0000,0.0000,0.0000,0.0000,0
2026-04-17,14:49:00,52,1,7.9920,8.0860,0.1736,5.1050,9.9731,0,1.0000,999,1,19.9774,12.0913,-5.2296,0.0123,171.0621,0.000,0.000,1.000,0.0000,0.0000,0.0000,0.0000,0.0000,0.0000,0
2026-04-17,14:49:00,53,1,7.9920,8.0564,0.1541,4.5336,9.8999,0,1.0000,999,1,21.0065,21.4733,-5.1897,0.3772,170.9528,0.000,0.000,1.000,0.0000,0.0000,0.0000,0.0000,0.0000,0.0000,0
2026-04-17,14:49:00,53,1,7.9920,8.1309,0.1368,4.0246,9.8420,0,1.0000,999,1,21.7270,21.2233,-5.1867,0.2955,170.9133,0.000,0.000,1.000,0.0000,0.0000,0.0000,0.0000,0.0000,0.0000,0
2026-04-17,14:49:00,55,1,7.9920,8.0512,0.1298,3.8172,9.7811,0,1.0000,999,1,22.2207,17.0929,-5.1824,0.2191,170.9044,0.000,0.000,1.000,0.0000,0.0000,0.0000,0.0000,0.0000,0.0000,0
2026-04-17,14:49:00,56,1,7.9920,8.0066,0.1442,4.2426,9.7237,0,1.0000,999,1,22.4096,9.2984,-5.2230,-0.2371,170.9781,0.000,0.000,1.000,0.0000,0.0000,0.0000,0.0000,0.0000,0.0000,0
2026-04-17,14:49:00,57,1,7.9920,7.9288,0.1512,4.4456,9.6662,0,1.0000,999,1,20.7504,-27.3112,-5.5405,-3.2963,171.0159,0.000,0.000,1.000,0.0000,0.0000,0.0000,0.0000,0.0000,0.0000,0
2026-04-17,14:49:00,58,1,6.6160,7.9663,0.1558,4.5831,9.6096,0,1.0000,827,1,19.8091,-23.8354,-5.9741,-6.2169,171.0165,0.032,0.000,1.000,0.0000,0.0000,0.0000,0.0000,0.0000,0.0000,0
2026-04-17,14:49:00,58,1,0.0000,-0.2052,-0.0337,0.9911,9.5663,0,1.0000,0,1,21.6109,21.8454,-5.8858,-2.8535,170.3370,0.048,0.000,1.000,0.0000,0.0000,0.0000,0.0000,0.0000,0.0000,0
2026-04-17,14:49:00,59,1,0.0000,-0.0393,0.0169,0.4972,9.5697,0,1.0000,0,1,23.5636,41.6671,-5.8239,-1.3059,170.2387,0.024,0.000,1.000,0.0000,0.0000,0.0000,0.0000,0.0000,0.0000,0
2026-04-17,14:49:00,59,1,0.0000,-0.0370,0.0162,0.4752,9.5696,0,1.0000,0,1,25.3327,39.2073,-5.7388,-0.2334,170.2324,0.000,0.000,1.000,0.0000,0.0000,0.0000,0.0000,0.0000,0.0000,0
2026-04-17,14:49:00,60,1,0.0000,-0.2134,0.0427,1.2571,9.5705,0,1.0000,0,1,26.8690,38.0460,-5.6895,0.4477,169.9153,0.000,0.000,1.000,0.0000,0.0000,0.0000,0.0000,0.0000,0.0000,0
2026-04-17,14:49:00,61,1,0.0000,-0.2184,0.0915,2.6908,9.5732,0,1.0000,0,1,27.5774,25.3940,-5.9621,-2.4544,169.6795,0.000,0.000,1.000,0.0000,0.0000,0.0000,0.0000,0.0000,0.0000,0
2026-04-17,14:49:00,62,1,0.0000,0.0466,0.0853,2.5092,9.5735,0,1.0000,0,1,26.1971,-14.3846,-7.0846,-12.1457,161.8247,0.000,0.000,1.000,0.0000,0.0000,0.0000,0.0000,0.0000,0.0000,0
2026-04-17,14:49:00,93,1,0.0000,0.2215,0.0563,1.6567,9.5724,0,1.0000,0,1,27.7228,21.9838,-6.9235,-6.7587,155.7495,0.000,0.000,1.000,0.0000,0.0000,0.0000,0.0000,0.0000,0.0000,0
2026-04-17,14:49:00,95,1,0.0000,0.1046,0.0490,1.4414,9.5717,0,1.0000,0,1,29.1650,28.3481,-7.1987,-6.7251,156.1609,0.000,0.000,1.000,0.0000,0.0000,0.0000,0.0000,0.0000,0.0000,0
2026-04-17,14:49:00,95,1,0.0000,0.0066,0.0483,1.4218,9.5715,0,1.0000,0,1,30.2674,32.4563,-7.3319,-5.8231,156.9931,0.000,0.000,1.000,0.0000,0.0000,0.0000,0.0000,0.0000,0.0000,0
2026-04-17,14:49:00,96,1,0.0000,0.0141,0.0483,1.4208,9.5714,0,1.0000,0,1,31.4285,33.1749,-7.2307,-2.9622,157.8386,0.000,0.000,1.000,0.0000,0.0000,0.0000,0.0000,0.0000,0.0000,0
2026-04-17,14:49:00,96,1,0.0000,-0.0135,0.0501,1.4734,9.5715,0,1.0000,0,1,32.4836,28.5072,-7.4396,-4.0509,158.1310,0.000,0.000,1.000,0.0000,0.0000,0.0000,0.0000,0.0000,0.0000,0
2026-04-17,14:49:00,97,1,0.0000,-0.0491,0.0579,1.7032,9.5718,0,1.0000,0,1,33.6865,32.6805,-8.2835,-10.9604,157.6394,0.000,0.000,1.000,0.0000,0.0000,0.0000,0.0000,0.0000,0.0000,0
2026-04-17,14:49:00,98,1,0.0000,-0.0437,0.0609,1.7909,9.5719,0,1.0000,0,1,34.4479,27.0773,-9.0645,-14.9170,157.3759,0.000,0.000,1.000,0.0000,0.0000,0.0000,0.0000,0.0000,0.0000,0
2026-04-17,14:49:00,99,1,0.0000,0.0028,0.0609,1.7900,9.5720,0,1.0000,0,1,35.4287,29.2619,-9.8017,-17.3248,157.1149,0.000,0.000,1.000,0.0000,0.0000,0.0000,0.0000,0.0000,0.0000,0
2026-04-17,14:49:00,100,1,0.0000,0.0015,0.0590,1.7341,9.5720,0,1.0000,0,1,36.5137,25.3518,-10.4110,-15.7873,157.3875,0.000,0.000,1.000,0.0000,0.0000,0.0000,0.0000,0.0000,0.0000,0
2026-04-17,14:49:00,101,1,0.0000,-0.0381,0.0643,1.8923,9.5722,0,1.0000,0,1,37.1773,22.7199,-10.2112,-8.6272,158.3226,0.000,0.000,1.000,0.0000,0.0000,0.0000,0.0000,0.0000,0.0000,0
2026-04-17,14:49:00,101,1,0.0000,-0.0525,0.0708,2.0826,9.5725,0,1.0000,0,1,37.8376,20.9390,-10.0029,-3.9296,158.7817,0.000,0.000,1.000,0.0000,0.0000,0.0000,0.0000,0.0000,0.0000,0
2026-04-17,14:49:00,102,1,0.0000,-0.0011,0.0718,2.1121,9.5727,0,1.0000,0,1,38.3479,17.7302,-10.2723,-5.3776,158.5981,0.000,0.000,1.000,0.0000,0.0000,0.0000,0.0000,0.0000,0.0000,0
2026-04-17,14:49:00,103,1,0.0000,-0.0127,0.0726,2.1363,9.5727,0,1.0000,0,1,39.0820,20.4249,-11.0393,-11.0821,158.1425,0.000,0.000,1.000,0.0000,0.0000,0.0000,0.0000,0.0000,0.0000,0
2026-04-17,14:49:00,103,1,0.0000,0.0123,0.0689,2.0263,9.5725,0,1.0000,0,0,39.8383,18.7834,-11.4962,-10.6028,158.4135,0.000,0.000,1.000,0.0000,0.0000,0.0000,0.0000,0.0000,0.0000,0
2026-04-17,14:49:00,104,1,0.0000,0.0235,0.0673,1.9795,9.5725,0,1.0000,0,0,40.3551,16.5649,-11.5531,-7.7017,158.8626,0.000,0.000,1.000,0.0000,0.0000,0.0000,0.0000,0.0000,0.0000,0
2026-04-17,14:49:00,105,1,0.0000,0.0213,0.0646,1.8990,9.5723,0,1.0000,0,0,40.9045,13.7546,-11.3250,-2.5612,159.5516,0.000,0.000,1.000,0.0000,0.0000,0.0000,0.0000,0.0000,0.0000,0
2026-04-17,14:49:00,105,1,0.0000,0.0190,0.0596,1.7520,9.5720,0,1.0000,0,0,41.3458,13.9174,-11.3941,-2.4805,159.6149,0.000,0.000,1.000,0.0000,0.0000,0.0000,0.0000,0.0000,0.0000,0
2026-04-17,14:49:00,106,1,0.0000,0.0256,0.0527,1.5499,9.5717,0,1.0000,0,0,41.8510,14.4910,-11.8199,-5.7465,159.3435,0.000,0.000,1.000,0.0000,0.0000,0.0000,0.0000,0.0000,0.0000,0
2026-04-17,14:49:00,107,1,0.0000,-0.0149,0.0550,1.6174,9.5718,0,1.0000,0,0,42.2983,13.8784,-12.4063,-9.5703,158.9872,0.000,0.000,1.000,0.0000,0.0000,0.0000,0.0000,0.0000,0.0000,0
2026-04-17,14:49:00,107,1,0.0000,0.1687,0.0271,0.7971,9.5707,0,1.0000,0,0,46.5963,3.6860,-10.9165,7.6743,165.6515,0.000,0.000,1.000,0.0000,0.0000,0.0000,0.0000,0.0000,0.0000,0
2026-04-17,14:49:00,109,1,0.0000,0.0170,0.0249,0.7333,9.5702,0,1.0000,0,0,46.9138,11.4423,-10.5697,9.9937,166.1470,0.000,0.000,1.000,0.0000,0.0000,0.0000,0.0000,0.0000,0.0000,0
2026-04-17,14:49:00,110,1,0.0000,0.0125,0.0243,0.7145,9.5702,0,1.0000,0,0,46.9910,7.3354,-10.4258,8.8334,166.3936,0.000,0.000,1.000,0.0000,0.0000,0.0000,0.0000,0.0000,0.0000,0
2026-04-17,14:49:00,135,1,0.0000,0.0158,0.0217,0.6368,9.5701,0,1.0000,0,0,47.2294,10.0491,-9.7662,15.9476,166.9594,0.000,0.000,1.000,0.0000,0.0000,0.0000,0.0000,0.0000,0.0000,0
2026-04-17,14:49:00,175,1,0.0000,0.0154,0.0203,0.5976,9.5700,0,1.0000,0,0,47.3460,5.7925,-9.4808,14.5583,167.3700,0.000,0.000,1.000,0.0000,0.0000,0.0000,0.0000,0.0000,0.0000,0
2026-04-17,14:49:00,210,1,0.0000,0.0237,0.0160,0.4703,9.5698,0,1.0000,0,0,47.5249,7.2779,-8.9379,15.8825,167.8707,0.000,0.000,1.000,0.0000,0.0000,0.0000,0.0000,0.0000,0.0000,0
2026-04-17,14:49:00,246,1,0.0000,0.0056,0.0162,0.4767,9.5697,0,1.0000,0,0,47.7936,6.9256,-8.5479,13.3443,168.4855,0.000,0.000,1.000,0.0000,0.0000,0.0000,0.0000,0.0000,0.0000,0
2026-04-17,14:49:00,281,1,0.0000,0.0041,0.0147,0.4318,9.5696,0,1.0000,0,0,47.9081,4.6509,-8.2417,10.7840,168.9173,0.000,0.000,1.000,0.0000,0.0000,0.0000,0.0000,0.0000,0.0000,0
2026-04-17,14:49:00,316,1,0.0000,-0.0017,0.0135,0.3975,9.5696,0,1.0000,0,0,48.0951,5.2769,-7.9189,10.4944,169.2702,0.000,0.000,1.000,0.0000,0.0000,0.0000,0.0000,0.0000,0.0000,0
2026-04-17,14:49:00,351,1,0.0000,0.0110,0.0105,0.3094,9.5695,0,1.0000,0,0,48.1989,4.0817,-7.5075,12.4060,169.7222,0.000,0.000,1.000,0.0000,0.0000,0.0000,0.0000,0.0000,0.0000,0
2026-04-17,14:49:00,386,1,0.0000,-0.0072,0.0111,0.3276,9.5694,0,1.0000,0,0,48.3743,5.6052,-7.2572,9.1645,169.8590,0.000,0.000,1.000,0.0000,0.0000,0.0000,0.0000,0.0000,0.0000,0
2026-04-17,14:49:00,422,1,-7.6560,0.0033,0.0108,0.3172,9.5694,0,1.0000,-957,1,48.4280,2.3856,-7.0272,8.0325,170.2414,0.000,0.000,1.000,0.0000,0.0000,0.0000,0.0000,0.0000,0.0000,0
2026-04-17,14:49:00,457,1,-7.6560,0.0003,0.0118,0.3459,9.5694,0,1.0000,-957,1,48.5475,3.3192,-6.6932,9.7928,170.3140,0.000,0.000,1.000,0.0000,0.0000,0.0000,0.0000,0.0000,0.0000,0
2026-04-17,14:49:00,492,1,-7.6560,0.0107,0.0103,0.3019,9.5694,0,1.0000,-957,1,48.5778,1.3449,-6.3063,11.3754,170.5771,0.000,0.000,1.000,0.0000,0.0000,0.0000,0.0000,0.0000,0.0000,0
2026-04-17,14:49:00,528,1,-7.9840,0.0054,0.0101,0.2964,9.5694,0,1.0000,-998,1,48.6828,3.5615,-5.9838,10.4291,170.6739,0.000,0.000,0.998,0.0000,0.0000,0.0000,0.0000,0.0000,0.0000,0
2026-04-17,14:49:00,563,1,-7.9840,0.0008,0.0110,0.3250,9.5694,0,1.0000,-998,1,48.6806,-0.2066,-5.7546,8.6316,170.8313,0.000,0.000,1.000,0.0000,0.0000,0.0000,0.0000,0.0000,0.0000,0
2026-04-17,14:49:01,598,1,-7.9840,-0.0070,0.0113,0.3328,9.5694,0,1.0000,-998,1,48.7607,2.6948,-5.5225,7.9098,170.9384,0.000,0.000,1.000,0.0000,0.0000,0.0000,0.0000,0.0000,0.0000,0
2026-04-17,14:49:01,634,1,-7.9840,0.0018,0.0108,0.3172,9.5694,0,1.0000,-998,1,48.7814,0.1070,-5.2400,8.5105,171.0220,0.000,0.000,1.000,0.0000,0.0000,0.0000,0.0000,0.0000,0.0000,0
2026-04-17,14:49:01,669,1,-7.9840,0.0049,0.0116,0.3407,9.5694,0,1.0000,-998,1,48.8123,1.2618,-5.0767,5.9827,171.1202,0.000,0.000,1.000,0.0000,0.0000,0.0000,0.0000,0.0000,0.0000,0
2026-04-17,14:49:01,704,1,-7.9840,0.0039,0.0108,0.3172,9.5694,0,1.0000,-998,1,48.8478,0.2382,-5.0184,3.0865,171.1579,0.000,0.000,1.000,0.0000,0.0000,0.0000,0.0000,0.0000,0.0000,0
2026-04-17,14:49:01,739,1,-7.9840,0.0075,0.0109,0.3198,9.5694,0,1.0000,-998,1,48.8431,0.5735,-5.0220,0.8893,171.2332,0.000,0.000,1.000,0.0000,0.0000,0.0000,0.0000,0.0000,0.0000,0
2026-04-17,14:49:01,775,1,-7.9840,-0.0083,0.0122,0.3588,9.5694,0,1.0000,-998,1,48.8909,0.8740,-5.0560,-0.3516,171.2331,0.000,0.000,1.000,0.0000,0.0000,0.0000,0.0000,0.0000,0.0000,0
2026-04-17,14:49:01,810,1,-7.9840,0.0013,0.0124,0.3640,9.5694,0,1.0000,-998,1,48.9014,0.8264,-5.1125,-1.6864,171.3268,0.000,0.000,0.997,0.0000,0.0000,0.0000,0.0000,0.0000,0.0000,0
2026-04-17,14:49:01,846,1,-0.2080,0.0023,0.0113,0.3328,9.5694,0,1.0000,-26,1,48.9447,1.2230,-5.1888,-2.1177,171.3115,0.000,0.000,0.994,0.0000,0.0000,0.0000,0.0000,0.0000,0.0000,0
2026-04-17,14:49:01,882,1,-0.2080,-0.0002,0.0118,0.3459,9.5694,0,1.0000,-26,1,48.9351,-0.1362,-5.2921,-2.9745,171.4006,0.000,0.000,0.990,0.0000,0.0000,0.0000,0.0000,0.0000,0.0000,0
2026-04-17,14:49:01,917,1,-0.2080,0.0043,0.0108,0.3172,9.5694,0,1.0000,-26,1,48.9590,1.1208,-5.4149,-3.6351,171.3827,0.000,0.000,0.987,0.0000,0.0000,0.0000,0.0000,0.0000,0.0000,0
2026-04-17,14:49:01,954,1,0.0000,-0.0016,0.0113,0.3328,9.5694,0,1.0000,0,1,48.9612,0.4852,-5.4315,-2.6413,171.4062,0.000,0.000,0.985,0.0000,0.0000,0.0000,0.0000,0.0000,0.0000,0
2026-04-17,14:49:01,989,1,0.0000,-0.0072,0.0111,0.3276,9.5694,0,1.0000,0,1,48.9742,1.0088,-5.5256,-2.7238,171.4144,0.000,0.000,0.982,0.0000,0.0000,0.0000,0.0000,0.0000,0.0000,0
2026-04-17,14:49:01,1024,1,0.0000,-0.0031,0.0115,0.3380,9.5694,0,1.0000,0,1,48.9683,-0.7464,-5.3938,2.2647,171.4701,0.000,0.000,0.978,0.0000,0.0000,0.0000,0.0000,0.0000,0.0000,0
2026-04-17,14:49:01,1060,1,0.0000,0.0069,0.0111,0.3276,9.5694,0,1.0000,0,1,48.9968,1.0791,-5.1192,6.4920,171.4711,0.000,0.000,0.975,0.0000,0.0000,0.0000,0.0000,0.0000,0.0000,0
2026-04-17,14:49:01,1096,1,0.0000,0.0117,0.0101,0.2964,9.5694,0,1.0000,0,1,48.9794,-0.3296,-4.6922,11.1016,171.4906,0.000,0.000,0.972,0.0000,0.0000,0.0000,0.0000,0.0000,0.0000,0
2026-04-17,14:49:01,1131,1,0.0000,-0.0004,0.0108,0.3172,9.5694,0,1.0000,0,1,49.0027,1.4024,-4.4896,7.3877,171.5123,0.000,0.000,0.969,0.0000,0.0000,0.0000,0.0000,0.0000,0.0000,0
2026-04-17,14:49:01,1167,1,0.0000,-0.0014,0.0110,0.3224,9.5694,0,1.0000,0,1,49.0031,-0.3346,-4.6342,-0.8823,171.5153,0.000,0.000,0.966,0.0000,0.0000,0.0000,0.0000,0.0000,0.0000,0
2026-04-17,14:49:01,1203,1,0.0000,-0.0024,0.0120,0.3537,9.5694,0,1.0000,0,1,48.9869,0.1416,-4.9463,-6.6712,171.5410,0.000,0.000,0.962,0.0000,0.0000,0.0000,0.0000,0.0000,0.0000,0
2026-04-17,14:49:01,1238,1,0.6480,-0.0046,0.0118,0.3458,9.5694,0,1.0000,81,1,48.9930,-0.5979,-5.1626,-6.5351,171.5325,0.000,0.000,0.959,0.0000,0.0000,0.0000,0.0000,0.0000,0.0000,0
2026-04-17,14:49:01,1274,1,0.6480,0.8622,0.0099,0.2913,9.5661,0,1.0000,81,1,49.0215,0.7994,-5.3360,-6.3170,171.5152,0.000,0.000,0.956,0.0000,0.0000,0.0000,0.0000,0.0000,0.0000,0
2026-04-17,14:49:01,1309,1,0.6480,0.5742,0.0292,0.8600,9.5617,0,1.0000,81,1,48.9482,-0.5931,-5.5454,-6.2289,171.5181,0.000,0.000,0.953,0.0000,0.0000,0.0000,0.0000,0.0000,0.0000,0
2026-04-17,14:49:01,1345,1,4.1200,0.7679,0.0060,0.1765,9.5559,0,1.0000,515,1,49.0369,0.7163,-5.6647,-4.8214,171.5398,0.000,0.000,0.950,0.0000,0.0000,0.0000,0.0000,0.0000,0.0000,0
2026-04-17,14:49:01,1381,1,4.1200,4.7509,0.0167,0.4901,9.5333,0,1.0000,515,1,48.9423,-7.4811,-5.9276,-7.1399,171.3164,0.000,0.000,0.946,0.0000,0.0000,0.0000,0.0000,0.0000,0.0000,0
2026-04-17,14:49:01,1416,1,4.1200,4.0487,-0.0016,0.0483,9.5002,0,1.0000,515,1,48.7071,-3.2983,-6.1761,-7.6595,171.5104,0.000,0.000,0.943,0.0000,0.0000,0.0000,0.0000,0.0000,0.0000,0
2026-04-17,14:49:01,1451,1,0.0000,4.1027,0.0233,0.6847,9.4699,0,1.0000,0,1,49.1264,8.7885,-6.4967,-9.4620,171.5935,0.000,0.000,0.940,0.0000,0.0000,0.0000,0.0000,0.0000,0.0000,0
2026-04-17,14:49:01,1487,1,0.0000,-1.2928,0.0067,0.1959,9.4591,0,1.0000,0,1,48.7483,-15.8706,-6.8764,-11.8673,171.5748,0.000,0.000,0.954,0.0000,0.0000,0.0000,0.0000,0.0000,0.0000,0
2026-04-17,14:49:01,1522,1,0.0000,0.2060,-0.0280,0.8249,9.4596,0,1.0000,0,1,49.3125,21.1680,-7.3862,-14.0014,171.5451,0.000,0.000,0.978,0.0000,0.0000,0.0000,0.0000,0.0000,0.0000,0
2026-04-17,14:49:01,1558,1,0.0000,0.0277,-0.0161,0.4748,9.4598,0,1.0000,0,1,48.9493,-16.9726,-7.6658,-11.2446,171.5047,0.000,0.000,1.000,0.0000,0.0000,0.0000,0.0000,0.0000,0.0000,0
2026-04-17,14:49:01,1594,1,0.0000,0.0034,-0.0144,0.4232,9.4598,0,1.0000,0,1,49.1519,15.0016,-7.9517,-9.0101,171.6044,0.000,0.000,1.000,0.0000,0.0000,0.0000,0.0000,0.0000,0.0000,0
2026-04-17,14:49:02,1629,1,0.0000,-0.0057,-0.0140,0.4111,9.4598,0,1.0000,0,1,49.1604,-8.1320,-8.0967,-6.2322,171.3808,0.000,0.000,1.000,0.0000,0.0000,0.0000,0.0000,0.0000,0.0000,0
2026-04-17,14:49:02,1664,1,0.0000,-0.0046,-0.0136,0.3990,9.4598,0,1.0000,0,1,48.9293,0.1435,-8.1228,-1.9335,171.5982,0.000,0.000,1.000,0.0000,0.0000,0.0000,0.0000,0.0000,0.0000,0
2026-04-17,14:49:02,1699,1,0.0000,-0.0304,-0.0117,0.3437,9.4599,0,1.0000,0,1,49.2894,3.4642,-7.9737,2.0927,171.1658,0.000,0.000,1.000,0.0000,0.0000,0.0000,0.0000,0.0000,0.0000,0
2026-04-17,14:49:02,1738,1,0.0000,-0.0237,-0.0102,0.3012,9.4600,0,1.0000,0,1,49.3824,12.0435,-7.9367,2.9521,171.1076,0.000,0.000,1.000,0.0000,0.0000,0.0000,0.0000,0.0000,0.0000,0
2026-04-17,14:49:02,1774,1,0.0000,-0.1724,0.0166,0.4885,9.4610,0,1.0000,0,1,49.7035,2.4897,-7.9544,-0.3703,170.6807,0.000,0.000,1.000,0.0000,0.0000,0.0000,0.0000,0.0000,0.0000,0
2026-04-17,14:49:02,1809,1,0.0000,0.0230,0.0042,0.1247,9.4609,0,1.0000,0,1,48.9410,-10.3497,-8.2935,-6.1163,170.3618,0.000,0.000,0.998,0.0000,0.0000,0.0000,0.0000,0.0000,0.0000,0
2026-04-17,14:49:02,1844,1,0.0000,-0.1414,0.0221,0.6494,9.4614,0,1.0000,0,1,50.1263,29.1115,-8.6516,-9.5751,169.4735,0.000,0.000,0.994,0.0000,0.0000,0.0000,0.0000,0.0000,0.0000,0
2026-04-17,14:49:02,1879,1,0.0000,-0.2468,0.0663,1.9499,9.4636,0,1.0000,0,1,49.1174,-31.9280,-10.6732,-43.7314,165.5328,0.000,0.000,1.000,0.0000,0.0000,0.0000,0.0000,0.0000,0.0000,0
2026-04-17,14:49:02,1914,1,0.0000,0.0317,0.0522,1.5349,9.4635,0,1.0000,0,1,49.4316,14.0677,-12.5351,-43.7382,137.1056,0.040,0.000,1.000,0.0000,0.0000,0.0000,0.0000,0.0000,0.0000,0
2026-04-17,14:49:02,1949,1,0.0000,0.0165,0.0408,1.2013,9.4628,0,1.0000,0,1,49.5692,1.9066,-12.5778,-11.7715,88.9483,0.008,0.000,1.000,0.0000,0.0000,0.0000,0.0000,0.0000,0.0000,0
2026-04-17,14:49:02,1984,1,0.0000,-0.0454,0.0487,1.4317,9.4630,0,1.0000,0,1,49.5441,2.0039,-11.7243,16.4783,74.3141,0.000,0.000,1.000,0.0000,0.0000,0.0000,0.0000,0.0000,0.0000,0
2026-04-17,14:49:02,2020,1,0.0000,0.0736,0.0480,1.4112,9.4634,0,1.0000,0,1,48.7501,-30.0543,-9.2718,52.6986,53.0315,0.016,0.000,1.000,0.0000,0.0000,0.0000,0.0000,0.0000,0.0000,0
2026-04-17,14:49:02,2056,1,0.0000,0.0325,0.0496,1.4598,9.4633,0,1.0000,0,1,48.6451,-2.7546,-7.5170,47.8007,70.0733,0.080,0.000,1.000,0.0000,0.0000,0.0000,0.0000,0.0000,0.0000,0
2026-04-17,14:49:02,2091,1,0.0000,0.0094,0.0479,1.4078,9.4632,0,1.0000,0,0,48.3278,-9.0331,-7.4767,16.2382,84.1715,0.144,0.000,1.000,0.0000,0.0000,0.0000,0.0000,0.0000,0.0000,0
2026-04-17,14:49:02,2126,1,0.0000,0.0155,0.0470,1.3810,9.4631,0,1.0000,0,0,48.7642,15.4010,-7.7531,1.9954,97.2356,0.160,0.000,1.000,0.0000,0.0000,0.0000,0.0000,0.0000,0.0000,0
2026-04-17,14:49:02,2162,1,0.0000,0.0025,0.0462,1.3582,9.4631,0,1.0000,0,0,48.6443,-6.6653,-7.7204,0.8659,108.1388,0.128,0.000,1.000,0.0000,0.0000,0.0000,0.0000,0.0000,0.0000,0
2026-04-17,14:49:02,2197,1,0.0000,-0.0031,0.0453,1.3321,9.4630,0,1.0000,0,0,48.8517,12.2544,-7.8639,-1.5211,117.8720,0.096,0.000,1.000,0.0000,0.0000,0.0000,0.0000,0.0000,0.0000,0
2026-04-17,14:49:02,2232,1,0.0000,0.0337,0.0393,1.1546,9.4628,0,1.0000,0,0,48.8034,-5.4635,-7.6782,2.8611,125.7449,0.064,0.000,1.000,0.0000,0.0000,0.0000,0.0000,0.0000,0.0000,0
2026-04-17,14:49:02,2267,1,0.0000,0.0285,0.0389,1.1453,9.4627,0,1.0000,0,0,48.7679,3.8549,-7.5546,3.9216,132.9425,0.032,0.000,1.000,0.0000,0.0000,0.0000,0.0000,0.0000,0.0000,0
2026-04-17,14:49:02,2302,1,0.0000,0.0594,0.0288,0.8470,9.4623,0,1.0000,0,0,48.9452,2.1913,-7.3725,4.8671,138.5863,0.000,0.000,1.000,0.0000,0.0000,0.0000,0.0000,0.0000,0.0000,0
2026-04-17,14:49:02,2337,1,0.0000,0.0062,0.0254,0.7459,9.4620,0,1.0000,0,0,48.8722,0.4745,-7.3157,2.5421,143.7554,0.000,0.000,1.000,0.0000,0.0000,0.0000,0.0000,0.0000,0.0000,0
2026-04-17,14:49:02,2372,1,0.0000,0.0057,0.0263,0.7722,9.4620,0,1.0000,0,0,49.0359,3.0243,-7.2052,3.4217,147.8876,0.000,0.000,0.998,0.0000,0.0000,0.0000,0.0000,0.0000,0.0000,0
2026-04-17,14:49:02,2408,1,0.0000,-0.0274,0.0297,0.8733,9.4622,0,1.0000,0,0,48.9433,-2.3491,-7.2219,0.2140,151.4438,0.000,0.000,0.995,0.0000,0.0000,0.0000,0.0000,0.0000,0.0000,0
2026-04-17,14:49:02,2443,1,0.0000,-0.0086,0.0314,0.9247,9.4623,0,1.0000,0,0,49.0105,2.8132,-7.3804,-3.0132,154.5564,0.000,0.000,0.992,0.0000,0.0000,0.0000,0.0000,0.0000,0.0000,0
2026-04-17,14:49:02,2478,1,0.0000,-0.0552,0.0399,1.1740,9.4626,0,1.0000,0,0,49.0930,1.8370,-7.5090,-3.8293,157.0154,0.000,0.000,0.989,0.0000,0.0000,0.0000,0.0000,0.0000,0.0000,0
2026-04-17,14:49:02,2514,1,0.0000,-0.0704,0.0528,1.5541,9.4632,0,1.0000,0,0,49.1443,1.2349,-7.9834,-10.9725,158.4268,0.000,0.000,0.986,0.0000,0.0000,0.0000,0.0000,0.0000,0.0000,0
2026-04-17,14:49:02,2554,1,0.0000,-0.0391,0.0576,1.6943,9.4636,0,1.0000,0,0,49.1594,-0.8352,-8.4564,-9.8014,159.1035,0.000,0.000,0.983,0.0000,0.0000,0.0000,0.0000,0.0000,0.0000,0
2026-04-17,14:49:02,2590,1,0.0000,0.0040,0.0564,1.6588,9.4636,0,1.0000,0,0,49.1225,0.1575,-8.2895,1.7445,160.9718,0.000,0.000,0.980,0.0000,0.0000,0.0000,0.0000,0.0000,0.0000,0
2026-04-17,14:49:03,2625,1,0.0000,0.0255,0.0508,1.4927,9.4634,0,1.0000,0,0,49.1210,-0.5716,-7.7334,12.4830,162.7736,0.000,0.000,0.977,0.0000,0.0000,0.0000,0.0000,0.0000,0.0000,0
2026-04-17,14:49:03,2660,1,0.0000,0.0124,0.0502,1.4753,9.4633,0,1.0000,0,0,49.1310,1.8345,-7.0513,18.0297,164.2725,0.000,0.000,0.974,0.0000,0.0000,0.0000,0.0000,0.0000,0.0000,0
2026-04-17,14:49:03,2695,1,0.0000,-0.0140,0.0506,1.4870,9.4633,0,1.0000,0,0,49.1975,-0.3335,-6.7858,10.9467,165.4078,0.000,0.000,0.970,0.0000,0.0000,0.0000,0.0000,0.0000,0.0000,0
2026-04-17,14:49:03,2730,1,0.0000,-0.0103,0.0521,1.5326,9.4633,0,1.0000,0,0,49.0686,-1.7962,-6.5599,8.8106,166.4995,0.000,0.000,0.967,0.0000,0.0000,0.0000,0.0000,0.0000,0.0000,0
2026-04-17,14:49:03,2765,1,0.0000,0.0073,0.0494,1.4515,9.4633,0,1.0000,0,0,49.0738,-0.4670,-6.3867,6.2709,167.2713,0.000,0.000,0.964,0.0000,0.0000,0.0000,0.0000,0.0000,0.0000,0
2026-04-17,14:49:03,2800,1,0.0000,0.0215,0.0459,1.3505,9.4632,0,1.0000,0,0,49.0026,-1.4596,-6.3357,3.0540,168.1239,0.000,0.000,0.961,0.0000,0.0000,0.0000,0.0000,0.0000,0.0000,0
2026-04-17,14:49:03,2835,1,0.0000,0.0165,0.0453,1.3320,9.4630,0,1.0000,0,0,49.1414,3.8856,-6.3236,1.1995,168.6596,0.000,0.000,0.958,0.0000,0.0000,0.0000,0.0000,0.0000,0.0000,0
2026-04-17,14:49:03,2870,1,0.0000,-0.0059,0.0460,1.3542,9.4630,0,1.0000,0,0,49.0351,-3.0875,-6.2863,1.0810,169.3058,0.000,0.000,0.954,0.0000,0.0000,0.0000,0.0000,0.0000,0.0000,0
2026-04-17,14:49:03,2906,1,0.0000,-0.0074,0.0464,1.3646,9.4631,0,1.0000,0,0,49.1364,2.5319,-6.1631,2.8889,169.7916,0.000,0.000,0.951,0.0000,0.0000,0.0000,0.0000,0.0000,0.0000,0
2026-04-17,14:49:03,2941,1,0.0000,0.0070,0.0473,1.3913,9.4631,0,1.0000,0,0,49.0221,-2.6354,-6.0931,1.9650,170.2978,0.000,0.000,0.948,0.0000,0.0000,0.0000,0.0000,0.0000,0.0000,0
2026-04-17,14:49:03,2976,1,0.0000,-0.0217,0.0535,1.5728,9.4633,0,1.0000,0,0,49.1302,2.1356,-6.0358,1.7439,170.7913,0.000,0.000,0.945,0.0000,0.0000,0.0000,0.0000,0.0000,0.0000,0
2026-04-17,14:49:03,3011,1,0.0000,-0.0337,0.0588,1.7308,9.4636,0,1.0000,0,0,48.9481,-7.3679,-5.8661,3.7849,171.4465,0.000,0.000,0.942,0.0000,0.0000,0.0000,0.0000,0.0000,0.0000,0
2026-04-17,14:49:03,3046,1,0.0000,0.0004,0.0584,1.7188,9.4637,0,1.0000,0,0,48.7963,-2.3236,-5.6724,4.5145,171.8013,0.000,0.000,0.938,0.0000,0.0000,0.0000,0.0000,0.0000,0.0000,0
2026-04-17,14:49:03,3081,1,0.0000,0.0566,0.0514,1.5123,9.4635,0,1.0000,0,0,48.8400,-0.8260,-5.6115,1.8303,171.7806,0.000,0.000,0.935,0.0000,0.0000,0.0000,0.0000,0.0000,0.0000,0
2026-04-17,14:49:03,3116,1,0.0000,0.0282,0.0492,1.4467,9.4633,0,1.0000,0,0,48.8601,2.5388,-5.7610,-2.5059,171.8741,0.000,0.000,0.932,0.0000,0.0000,0.0000,0.0000,0.0000,0.0000,0
2026-04-17,14:49:03,3151,1,0.0000,0.0182,0.0488,1.4365,9.4632,0,1.0000,0,0,48.9581,1.7972,-5.8154,-2.1567,172.0491,0.000,0.000,0.929,0.0000,0.0000,0.0000,0.0000,0.0000,0.0000,0
2026-04-17,14:49:03,3186,1,0.0000,-0.0000,0.0477,1.4033,9.4632,0,1.0000,0,0,48.9143,-0.4782,-5.8706,-2.0487,172.2473,0.000,0.000,0.926,0.0000,0.0000,0.0000,0.0000,0.0000,0.0000,0
2026-04-17,14:49:03,3221,1,0.0000,-0.0055,0.0488,1.4346,9.4632,0,1.0000,0,0,48.9527,0.3937,-5.8327,-0.0795,172.6180,0.000,0.000,0.922,0.0000,0.0000,0.0000,0.0000,0.0000,0.0000,0
2026-04-17,14:49:03,3256,1,0.0000,0.0009,0.0492,1.4485,9.4632,0,1.0000,0,0,48.8630,-0.5488,-5.7039,1.6199,173.1588,0.000,0.000,0.919,0.0000,0.0000,0.0000,0.0000,0.0000,0.0000,0
2026-04-17,14:49:03,3291,1,0.0000,-0.0013,0.0490,1.4411,9.4632,0,1.0000,0,0,48.8523,-0.5518,-5.6510,0.2906,173.6578,0.000,0.000,0.916,0.0000,0.0000,0.0000,0.0000,0.0000,0.0000,0
2026-04-17,14:49:03,3327,1,0.0000,0.0093,0.0495,1.4550,9.4632,0,1.0000,0,0,48.7752,-1.6054,-5.5595,0.1199,174.0046,0.000,0.000,0.913,0.0000,0.0000,0.0000,0.0000,0.0000,0.0000,0
2026-04-17,14:49:03,3367,1,0.0000,-0.0015,0.0493,1.4514,9.4632,0,1.0000,0,0,48.6949,-1.7969,-5.2882,2.2240,174.3038,0.000,0.000,0.910,0.0000,0.0000,0.0000,0.0000,0.0000,0.0000,0
2026-04-17,14:49:03,3402,1,0.0000,0.0107,0.0470,1.3810,9.4632,0,1.0000,0,0,48.7064,1.1670,-5.7415,-9.0551,174.0520,0.000,0.000,0.907,0.0000,0.0000,0.0000,0.0000,0.0000,0.0000,0
2026-04-17,14:49:03,3437,1,0.0000,-0.0055,0.0484,1.4245,9.4632,0,1.0000,0,0,48.7783,1.4619,-6.2181,-13.3206,173.6702,0.000,0.000,0.904,0.0000,0.0000,0.0000,0.0000,0.0000,0.0000,0
2026-04-17,14:49:03,3472,1,0.0000,-0.0020,0.0485,1.4263,9.4632,0,1.0000,0,0,48.7236,-0.6134,-6.6790,-14.3073,173.5276,0.000,0.000,0.901,0.0000,0.0000,0.0000,0.0000,0.0000,0.0000,0
2026-04-17,14:49:03,3507,1,0.0000,0.0035,0.0490,1.4421,9.4632,0,1.0000,0,0,48.7911,1.1341,-6.9564,-10.7790,173.6208,0.000,0.000,0.898,0.0000,0.0000,0.0000,0.0000,0.0000,0.0000,0
2026-04-17,14:49:03,3542,1,0.0000,0.0173,0.0463,1.3605,9.4631,0,1.0000,0,0,48.7139,-1.6101,-7.0445,-6.2290,173.7171,0.000,0.000,0.894,0.0000,0.0000,0.0000,0.0000,0.0000,0.0000,0
2026-04-17,14:49:03,3577,1,0.0000,-0.0015,0.0444,1.3067,9.4630,0,1.0000,0,0,48.7977,2.8382,-7.1336,-4.6767,173.7272,0.000,0.000,0.891,0.0000,0.0000,0.0000,0.0000,0.0000,0.0000,0
2026-04-17,14:49:04,3612,1,0.0000,0.0123,0.0421,1.2377,9.4629,0,1.0000,0,0,48.7531,-1.2290,-7.1526,-2.5331,173.7698,0.000,0.000,0.888,0.0000,0.0000,0.0000,0.0000,0.0000,0.0000,0
2026-04-17,14:49:04,3647,1,0.0000,-0.0142,0.0423,1.2455,9.4629,0,1.0000,0,0,48.7925,1.9903,-7.1264,-1.3381,173.7289,0.000,0.000,0.885,0.0000,0.0000,0.0000,0.0000,0.0000,0.0000,0
2026-04-17,14:49:04,3682,1,0.0000,-0.0108,0.0435,1.2800,9.4629,0,1.0000,0,0,48.7642,-1.7382,-7.1665,-1.8240,173.7941,0.000,0.000,0.882,0.0000,0.0000,0.0000,0.0000,0.0000,0.0000,0
2026-04-17,14:49:04,3717,1,0.0000,-0.0031,0.0417,1.2278,9.4629,0,1.0000,0,0,48.7439,1.0227,-7.3036,-4.5654,173.9784,0.000,0.000,0.878,0.0000,0.0000,0.0000,0.0000,0.0000,0.0000,0
2026-04-17,14:49:04,3752,1,0.0000,0.0007,0.0453,1.3321,9.4630,0,1.0000,0,0,48.7286,-1.8823,-7.4212,-5.0721,174.4586,0.000,0.000,0.875,0.0000,0.0000,0.0000,0.0000,0.0000,0.0000,0
2026-04-17,14:49:04,3787,1,0.0000,-0.0219,0.0482,1.4177,9.4631,0,1.0000,0,0,48.5853,-2.1841,-7.4284,-3.4271,174.7700,0.000,0.000,0.872,0.0000,0.0000,0.0000,0.0000,0.0000,0.0000,0
2026-04-17,14:49:04,3822,1,0.0000,-0.0014,0.0468,1.3767,9.4631,0,1.0000,0,0,48.6194,-0.1490,-7.4315,-2.9808,174.9949,0.000,0.000,0.869,0.0000,0.0000,0.0000,0.0000,0.0000,0.0000,0
2026-04-17,14:49:04,3857,1,0.0000,-0.0093,0.0492,1.4466,9.4631,0,1.0000,0,0,48.4957,-1.9346,-7.4496,-3.0297,174.7041,0.000,0.000,0.866,0.0000,0.0000,0.0000,0.0000,0.0000,0.0000,0
2026-04-17,14:49:04,3892,1,0.0000,0.0050,0.0473,1.3913,9.4631,0,1.0000,0,0,48.5672,2.0377,-7.6039,-5.1779,174.1811,0.000,0.000,0.862,0.0000,0.0000,0.0000,0.0000,0.0000,0.0000,0
2026-04-17,14:49:04,3927,1,0.0000,0.0068,0.0467,1.3748,9.4631,0,1.0000,0,0,48.5245,-1.2590,-7.9093,-8.1876,173.7510,0.000,0.000,0.859,0.0000,0.0000,0.0000,0.0000,0.0000,0.0000,0
2026-04-17,14:49:04,3962,1,0.0000,0.0247,0.0424,1.2461,9.4630,0,1.0000,0,0,48.6338,4.0572,-8.0278,-5.1959,173.4377,0.000,0.000,0.856,0.0000,0.0000,0.0000,0.0000,0.0000,0.0000,0
2026-04-17,14:49:04,3997,1,0.0000,-0.0024,0.0428,1.2588,9.4629,0,1.0000,0,0,48.7069,2.0557,-8.0978,-3.6479,173.3608,0.000,0.000,0.853,0.0000,0.0000,0.0000,0.0000,0.0000,0.0000,0
2026-04-17,14:49:04,4032,1,0.0000,-0.0020,0.0425,1.2509,9.4629,0,1.0000,0,0,48.7081,-0.2422,-8.1407,-2.4228,173.3574,0.000,0.000,0.850,0.0000,0.0000,0.0000,0.0000,0.0000,0.0000,0
2026-04-17,14:49:04,4067,1,0.0000,-0.0015,0.0429,1.2612,9.4629,0,1.0000,0,0,48.7396,0.2169,-8.1537,-2.1719,173.7756,0.000,0.000,0.846,0.0000,0.0000,0.0000,0.0000,0.0000,0.0000,0
2026-04-17,14:49:04,4102,1,0.0000,-0.0157,0.0455,1.3390,9.4630,0,1.0000,0,0,48.6217,-2.8055,-8.0795,-0.1158,174.2832,0.000,0.000,0.843,0.0000,0.0000,0.0000,0.0000,0.0000,0.0000,0
2026-04-17,14:49:04,4139,1,0.0000,-0.0068,0.0461,1.3572,9.4630,0,1.0000,0,0,48.4869,-3.1561,-7.4781,5.0830,175.0915,0.000,0.000,0.841,0.0000,0.0000,0.0000,0.0000,0.0000,0.0000,0
2026-04-17,14:49:04,4174,1,0.0000,-0.0080,0.0463,1.3625,9.4631,0,1.0000,0,0,48.4172,-3.3842,-7.5936,-2.5038,175.1447,0.000,0.000,0.838,0.0000,0.0000,0.0000,0.0000,0.0000,0.0000,0
2026-04-17,14:49:04,4209,1,0.0000,0.0036,0.0476,1.4014,9.4631,0,1.0000,0,0,48.3584,0.2618,-7.8370,-7.1564,174.6987,0.000,0.000,0.834,0.0000,0.0000,0.0000,0.0000,0.0000,0.0000,0
2026-04-17,14:49:04,4245,1,0.0000,0.0012,0.0455,1.3379,9.4631,0,1.0000,0,0,48.4446,2.1709,-8.1926,-10.7024,174.0902,0.000,0.000,0.831,0.0000,0.0000,0.0000,0.0000,0.0000,0.0000,0
2026-04-17,14:49:04,4280,1,0.0000,0.0026,0.0470,1.3810,9.4631,0,1.0000,0,0,48.4017,-0.7273,-8.5760,-11.9859,173.6306,0.000,0.000,0.828,0.0000,0.0000,0.0000,0.0000,0.0000,0.0000,0
2026-04-17,14:49:04,4316,1,0.0000,-0.0074,0.0472,1.3871,9.4631,0,1.0000,0,0,48.5711,5.5468,-8.9537,-11.8599,173.4183,0.000,0.000,0.825,0.0000,0.0000,0.0000,0.0000,0.0000,0.0000,0
2026-04-17,14:49:04,4352,1,0.0000,-0.0101,0.0472,1.3893,9.4631,0,1.0000,0,0,48.5475,-1.5976,-9.1232,-7.9445,173.4733,0.000,0.000,0.822,0.0000,0.0000,0.0000,0.0000,0.0000,0.0000,0
2026-04-17,14:49:04,4387,1,0.0000,-0.0131,0.0488,1.4347,9.4632,0,1.0000,0,0,48.4965,0.3638,-9.1118,-3.2464,173.7779,0.000,0.000,0.818,0.0000,0.0000,0.0000,0.0000,0.0000,0.0000,0
2026-04-17,14:49:04,4422,1,0.0000,-0.0051,0.0510,1.4986,9.4633,0,1.0000,0,0,48.5065,-0.4923,-8.9969,-0.0482,174.0219,0.000,0.000,0.815,0.0000,0.0000,0.0000,0.0000,0.0000,0.0000,0
2026-04-17,14:49:04,4457,1,0.0000,-0.0352,0.0548,1.6119,9.4635,0,1.0000,0,0,48.4387,-1.5598,-8.9147,0.4936,174.1216,0.000,0.000,0.812,0.0000,0.0000,0.0000,0.0000,0.0000,0.0000,0
2026-04-17,14:49:04,4492,1,0.0000,-0.0357,0.0607,1.7845,9.4637,0,1.0000,0,0,48.4072,-1.3366,-8.7113,3.4360,174.2053,0.000,0.000,0.809,0.0000,0.0000,0.0000,0.0000,0.0000,0.0000,0
2026-04-17,14:49:04,4528,1,0.0000,0.0033,0.0619,1.8193,9.4639,0,1.0000,0,0,48.2569,-4.1967,-8.3906,6.8716,174.1653,0.000,0.000,0.806,0.0000,0.0000,0.0000,0.0000,0.0000,0.0000,0
2026-04-17,14:49:04,4563,1,0.0000,0.0070,0.0602,1.7714,9.4639,0,1.0000,0,0,48.3179,1.9289,-8.0363,8.2801,173.8699,0.000,0.000,0.802,0.0000,0.0000,0.0000,0.0000,0.0000,0.0000,0
2026-04-17,14:49:05,4598,1,0.0000,0.0591,0.0528,1.5538,9.4636,0,1.0000,0,0,48.2709,-1.2345,-7.8740,5.7145,173.3888,0.000,0.000,0.799,0.0000,0.0000,0.0000,0.0000,0.0000,0.0000,0
2026-04-17,14:49:05,4633,1,0.0000,0.0479,0.0461,1.3572,9.4633,0,1.0000,0,0,48.3344,2.4570,-7.8686,1.4739,172.9439,0.000,0.000,0.796,0.0000,0.0000,0.0000,0.0000,0.0000,0.0000,0
2026-04-17,14:49:05,4668,1,0.0000,-0.0012,0.0479,1.4097,9.4632,0,1.0000,0,0,48.6100,8.1932,-8.1056,-5.2196,172.7774,0.000,0.000,0.793,0.0000,0.0000,0.0000,0.0000,0.0000,0.0000,0
2026-04-17,14:49:05,4703,1,0.0000,-0.0357,0.0564,1.6603,9.4635,0,1.0000,0,0,48.5515,-3.7175,-8.3131,-5.5248,173.1563,0.000,0.000,0.790,0.0000,0.0000,0.0000,0.0000,0.0000,0.0000,0
2026-04-17,14:49:05,4738,1,0.0000,-0.0856,0.0676,1.9874,9.4639,0,1.0000,0,0,48.4024,-0.9129,-7.9325,4.8941,174.2762,0.000,0.000,0.786,0.0000,0.0000,0.0000,0.0000,0.0000,0.0000,0
2026-04-17,14:49:05,4773,1,0.0000,-0.1973,0.0966,2.8405,9.4653,0,1.0000,0,0,48.2600,-6.8754,-7.0586,17.1812,175.4244,0.000,0.000,0.783,0.0000,0.0000,0.0000,0.0000,0.0000,0.0000,0
2026-04-17,14:49:05,4808,1,0.0000,0.0101,0.0969,2.8504,9.4657,0,1.0000,0,0,47.9467,-7.5503,-6.3464,17.2021,175.2262,0.016,0.000,0.789,0.0000,0.0000,0.0000,0.0000,0.0000,0.0000,0
2026-04-17,14:49:05,4843,1,0.0000,0.0224,0.0948,2.7894,9.4657,0,1.0000,0,0,47.8964,-1.2667,-6.3281,4.3964,174.0038,0.008,0.000,0.821,0.0000,0.0000,0.0000,0.0000,0.0000,0.0000,0
2026-04-17,14:49:05,4878,1,0.0000,0.0408,0.0891,2.6201,9.4654,0,1.0000,0,0,47.9393,2.5619,-6.6315,-4.5605,173.3762,0.000,0.000,0.853,0.0000,0.0000,0.0000,0.0000,0.0000,0.0000,0
2026-04-17,14:49:05,4913,1,0.0000,0.0968,0.0761,2.2382,9.4649,0,1.0000,0,0,48.0985,4.8883,-6.8068,-5.1373,173.0512,0.000,0.000,0.885,0.0000,0.0000,0.0000,0.0000,0.0000,0.0000,0
2026-04-17,14:49:05,4946,1,0.0000,0.1231,0.0637,1.8730,9.4644,0,1.0000,0,0,48.1193,3.0460,-6.7156,-3.4379,173.1396,0.000,0.000,0.901,0.0000,0.0000,0.0000,0.0000,0.0000,0.0000,0
2026-04-17,14:49:05,4981,1,0.0000,-0.0647,0.0721,2.1193,9.4642,0,1.0000,0,0,48.2101,1.5862,-6.4501,3.8170,173.8521,0.000,0.000,0.924,0.0000,0.0000,0.0000,0.0000,0.0000,0.0000,0
2026-04-17,14:49:05,5017,1,0.0000,-0.1407,0.0926,2.7224,9.4651,0,1.0000,0,0,47.9307,-6.1591,-5.6844,14.8566,174.8943,0.000,0.000,0.921,0.0000,0.0000,0.0000,0.0000,0.0000,0.0000,0
2026-04-17,14:49:05,5052,1,0.0000,0.0034,0.0934,2.7463,9.4656,0,1.0000,0,0,47.7811,-5.9789,-4.8608,18.7740,175.2826,0.000,0.000,0.953,0.0000,0.0000,0.0000,0.0000,0.0000,0.0000,0
2026-04-17,14:49:05,5087,1,0.0000,0.0142,0.0925,2.7215,9.4655,0,1.0000,0,0,47.6361,-2.3462,-4.6734,7.7248,174.1656,0.000,0.000,0.985,0.0000,0.0000,0.0000,0.0000,0.0000,0.0000,0
2026-04-17,14:49:05,5122,1,0.0000,0.0470,0.0848,2.4935,9.4653,0,1.0000,0,0,47.7269,2.0915,-5.1312,-7.1121,173.2624,0.000,0.000,1.000,0.0000,0.0000,0.0000,0.0000,0.0000,0.0000,0
2026-04-17,14:49:05,5157,1,0.0000,0.0839,0.0747,2.1977,9.4648,0,1.0000,0,0,47.8009,3.5414,-5.5240,-9.7625,172.9069,0.000,0.000,1.000,0.0000,0.0000,0.0000,0.0000,0.0000,0.0000,0
2026-04-17,14:49:05,5193,1,0.0000,0.1080,0.0513,1.5093,9.4637,0,1.0000,0,0,48.0229,5.2786,-5.6787,-6.5304,172.4997,0.000,0.000,1.000,0.0000,0.0000,0.0000,0.0000,0.0000,0.0000,0
2026-04-17,14:49:05,5228,1,0.0000,-0.0085,0.0569,1.6747,9.4636,0,1.0000,0,0,47.9581,-0.5930,-5.7310,-3.5312,172.5757,0.000,0.000,1.000,0.0000,0.0000,0.0000,0.0000,0.0000,0.0000,0
2026-04-17,14:49:05,5264,1,0.0000,-0.0239,0.0607,1.7840,9.4637,0,1.0000,0,0,48.1607,4.3035,-5.5253,2.2032,173.1764,0.000,0.000,1.000,0.0000,0.0000,0.0000,0.0000,0.0000,0.0000,0
2026-04-17,14:49:05,5299,1,0.0000,-0.1300,0.0763,2.2429,9.4644,0,1.0000,0,0,47.9534,-8.2279,-5.0306,9.3082,174.2338,0.000,0.000,0.998,0.0000,0.0000,0.0000,0.0000,0.0000,0.0000,0
2026-04-17,14:49:05,5334,1,0.0000,-0.1070,0.0967,2.8429,9.4655,0,1.0000,0,0,47.6473,-6.7783,-4.3923,13.9114,174.6144,0.000,0.000,1.000,0.0000,0.0000,0.0000,0.0000,0.0000,0.0000,0
2026-04-17,14:49:05,5369,1,0.0000,0.0546,0.0850,2.4997,9.4653,0,1.0000,0,0,47.5087,-4.9349,-4.0238,9.4029,174.1184,0.000,0.000,1.000,0.0000,0.0000,0.0000,0.0000,0.0000,0.0000,0
2026-04-17,14:49:05,5404,1,0.0000,0.0947,0.0724,2.1284,9.4647,0,1.0000,0,0,47.6348,5.3851,-4.2884,-2.9529,172.8598,0.000,0.000,1.000,0.0000,0.0000,0.0000,0.0000,0.0000,0.0000,0
2026-04-17,14:49:05,5439,1,0.0000,0.1494,0.0475,1.3963,9.4636,0,1.0000,0,0,47.7269,0.8076,-4.5813,-6.7692,172.6158,0.000,0.000,1.000,0.0000,0.0000,0.0000,0.0000,0.0000,0.0000,0
2026-04-17,14:49:05,5474,1,0.0000,0.0157,0.0500,1.4716,9.4633,0,1.0000,0,0,47.7638,3.6013,-4.8494,-8.1989,172.1278,0.000,0.000,1.000,0.0000,0.0000,0.0000,0.0000,0.0000,0.0000,0
2026-04-17,14:49:05,5509,1,0.0000,-0.0310,0.0526,1.5457,9.4633,0,1.0000,0,0,48.0821,9.5306,-5.2421,-11.1062,171.8536,0.000,0.000,1.000,0.0000,0.0000,0.0000,0.0000,0.0000,0.0000,0
2026-04-17,14:49:05,5544,1,0.0000,-0.0216,0.0558,1.6415,9.4635,0,1.0000,0,0,47.9233,-6.4227,-5.4033,-6.7935,172.1346,0.000,0.000,0.999,0.0000,0.0000,0.0000,0.0000,0.0000,0.0000,0
2026-04-17,14:49:05,5579,1,-0.2400,-0.0526,0.0638,1.8756,9.4639,0,1.0000,-30,1,47.9124,2.4106,-5.0330,4.4058,172.7972,0.000,0.000,0.996,0.0000,0.0000,0.0000,0.0000,0.0000,0.0000,0
2026-04-17,14:49:06,5615,1,-5.9840,-0.2194,0.0661,1.9436,9.4648,0,1.0000,-748,1,47.7076,-9.1933,-4.5144,10.0454,173.2735,0.000,0.000,0.993,0.0000,0.0000,0.0000,0.0000,0.0000,0.0000,0
2026-04-17,14:49:06,5651,1,-7.4880,-0.3933,0.0601,1.7679,9.4674,0,1.0000,-936,1,47.5558,-1.3548,-4.1571,8.0501,172.8856,0.000,0.000,0.990,0.0000,0.0000,0.0000,0.0000,0.0000,0.0000,0
2026-04-17,14:49:06,5687,1,-7.4880,-0.6311,0.0482,1.4176,9.4715,0,1.0000,-936,1,47.6837,2.1955,-4.4412,-3.8464,172.0848,0.000,0.000,0.986,0.0000,0.0000,0.0000,0.0000,0.0000,0.0000,0
2026-04-17,14:49:06,5720,1,-7.4880,-0.7422,0.0381,1.1196,9.4750,0,1.0000,-936,1,47.6639,0.9651,-4.5004,-3.4188,171.9967,0.000,0.000,0.985,0.0000,0.0000,0.0000,0.0000,0.0000,0.0000,0
2026-04-17,14:49:06,5756,1,-7.9840,-0.2138,0.0605,1.7800,9.4809,0,1.0000,-998,1,48.0424,13.4204,-4.7428,-6.0651,171.7038,0.000,0.000,0.982,0.0000,0.0000,0.0000,0.0000,0.0000,0.0000,0
2026-04-17,14:49:06,5792,1,-7.9840,-0.1176,0.0295,0.8667,9.4814,0,1.0000,-998,1,47.6556,-16.2619,-5.0771,-9.1493,171.2968,0.000,0.000,0.978,0.0000,0.0000,0.0000,0.0000,0.0000,0.0000,0
2026-04-17,14:49:06,5828,1,-7.9840,-0.5217,0.0354,1.0420,9.4841,0,1.0000,-998,1,47.8702,14.0353,-5.3737,-8.5786,171.1757,0.000,0.000,0.975,0.0000,0.0000,0.0000,0.0000,0.0000,0.0000,0
2026-04-17,14:49:06,5864,1,-7.9840,-0.7722,0.0462,1.3601,9.4893,0,1.0000,-998,1,48.1660,0.3609,-5.4227,-4.4130,171.1008,0.000,0.000,0.972,0.0000,0.0000,0.0000,0.0000,0.0000,0.0000,0
2026-04-17,14:49:06,5900,1,-7.9840,-0.8883,0.0335,0.9844,9.4954,0,1.0000,-998,1,47.6087,-10.4608,-5.3281,0.0950,171.1843,0.000,0.000,0.969,0.0000,0.0000,0.0000,0.0000,0.0000,0.0000,0
2026-04-17,14:49:06,5935,1,-7.9840,-0.9783,0.0504,1.4817,9.5026,0,1.0000,-998,1,48.1050,12.9263,-5.1431,3.2356,171.2552,0.000,0.000,0.966,0.0000,0.0000,0.0000,0.0000,0.0000,0.0000,0
2026-04-17,14:49:06,5971,1,-7.9840,-1.0048,0.0243,0.7145,9.5102,0,1.0000,-998,1,47.7221,-11.8991,-4.9774,4.0164,171.2092,0.000,0.000,0.962,0.0000,0.0000,0.0000,0.0000,0.0000,0.0000,0
2026-04-17,14:49:06,6007,1,-7.9840,-0.4714,0.0376,1.1058,9.5146,0,1.0000,-998,1,48.0793,10.9729,-4.8583,3.6215,170.9075,0.000,0.000,0.959,0.0000,0.0000,0.0000,0.0000,0.0000,0.0000,0
2026-04-17,14:49:06,6042,1,-7.9840,-0.7299,0.0315,0.9274,9.5196,0,1.0000,-998,1,47.6979,-12.1427,-4.8292,1.7387,170.7564,0.000,0.000,0.956,0.0000,0.0000,0.0000,0.0000,0.0000,0.0000,0
2026-04-17,14:49:06,6078,1,-7.9840,-0.2424,0.0219,0.6449,9.5235,0,1.0000,-998,1,48.0286,15.3542,-4.7330,2.2232,170.4127,0.000,0.000,0.953,0.0000,0.0000,0.0000,0.0000,0.0000,0.0000,0
2026-04-17,14:49:06,6114,1,-7.9840,-0.1801,0.0217,0.6384,9.5252,0,1.0000,-998,1,48.0986,-4.2824,-4.7462,0.6702,170.4912,0.000,0.000,0.950,0.0000,0.0000,0.0000,0.0000,0.0000,0.0000,0
2026-04-17,14:49:06,6149,1,-7.9840,-0.5052,0.0361,1.0610,9.5282,0,1.0000,-998,1,47.7855,-1.6461,-4.6039,3.1703,170.2127,0.000,0.000,0.946,0.0000,0.0000,0.0000,0.0000,0.0000,0.0000,0
2026-04-17,14:49:06,6185,1,-7.9840,-0.8386,0.0551,1.6195,9.5335,0,1.0000,-998,1,48.2549,7.0922,-4.4483,4.3422,170.2373,0.000,0.000,0.943,0.0000,0.0000,0.0000,0.0000,0.0000,0.0000,0
2026-04-17,14:49:06,6220,1,-7.9840,-0.8575,0.0437,1.2863,9.5397,0,1.0000,-998,1,47.7261,-15.2443,-4.2906,4.5451,170.4040,0.000,0.000,0.940,0.0000,0.0000,0.0000,0.0000,0.0000,0.0000,0
2026-04-17,14:49:06,6255,1,-7.9840,-1.2661,0.0500,1.4704,9.5480,0,1.0000,-998,1,47.8736,8.1753,-3.9995,6.6433,170.5309,0.000,0.000,0.937,0.0000,0.0000,0.0000,0.0000,0.0000,0.0000,0
2026-04-17,14:49:06,6291,1,-7.9840,-0.9109,0.0398,1.1710,9.5564,0,1.0000,-998,1,47.9801,-0.1067,-4.0029,1.3742,170.4273,0.000,0.000,0.934,0.0000,0.0000,0.0000,0.0000,0.0000,0.0000,0
2026-04-17,14:49:06,6327,1,-7.9840,-0.7990,0.0426,1.2540,9.5621,0,1.0000,-998,1,47.7341,-3.1303,-3.9636,1.2159,170.1657,0.000,0.000,0.930,0.0000,0.0000,0.0000,0.0000,0.0000,0.0000,0
2026-04-17,14:49:06,6363,1,-7.9840,-0.7603,0.0187,0.5504,9.5685,0,1.0000,-998,1,47.9544,6.2785,-3.9265,1.1741,170.2015,0.000,0.000,0.927,0.0000,0.0000,0.0000,0.0000,0.0000,0.0000,0
2026-04-17,14:49:06,6399,1,-7.9840,-0.1565,0.0219,0.6445,9.5712,0,1.0000,-998,1,48.0134,0.0383,-3.9257,-0.0834,169.8742,0.000,0.000,0.924,0.0000,0.0000,0.0000,0.0000,0.0000,0.0000,0
2026-04-17,14:49:06,6435,1,-7.9840,-0.4536,0.0324,0.9540,9.5742,0,1.0000,-998,1,47.8572,-1.0223,-4.0530,-2.3994,170.0329,0.000,0.000,0.921,0.0000,0.0000,0.0000,0.0000,0.0000,0.0000,0
2026-04-17,14:49:06,6470,1,-7.9840,-0.7081,0.0369,1.0865,9.5789,0,1.0000,-998,1,48.1111,5.4033,-4.1133,-2.4744,169.7072,0.000,0.000,0.918,0.0000,0.0000,0.0000,0.0000,0.0000,0.0000,0
2026-04-17,14:49:06,6503,1,-7.9840,-0.8662,0.0398,1.1720,9.5829,0,1.0000,-998,1,48.1383,3.4197,-4.1376,-2.1000,169.7374,0.000,0.000,0.916,0.0000,0.0000,0.0000,0.0000,0.0000,0.0000,0
2026-04-17,14:49:06,6539,1,-7.9840,-0.6770,0.0558,1.6426,9.5909,0,1.0000,-998,1,48.1965,7.8655,-4.1737,-1.4203,169.4448,0.000,0.000,0.913,0.0000,0.0000,0.0000,0.0000,0.0000,0.0000,0
2026-04-17,14:49:06,6574,1,-7.9840,-0.7251,0.0478,1.4063,9.5965,0,1.0000,-998,1,47.9776,-8.5155,-4.1205,0.8082,169.6254,0.000,0.000,0.910,0.0000,0.0000,0.0000,0.0000,0.0000,0.0000,0
2026-04-17,14:49:07,6610,1,-7.9840,-0.7864,0.0316,0.9281,9.6025,0,1.0000,-998,1,48.0357,4.7810,-4.1286,-0.2979,169.4436,0.000,0.000,0.906,0.0000,0.0000,0.0000,0.0000,0.0000,0.0000,0
2026-04-17,14:49:07,6645,1,-7.9840,-0.7115,0.0389,1.1448,9.6084,0,1.0000,-998,1,48.1863,1.2850,-4.3397,-4.5475,169.4606,0.000,0.000,0.903,0.0000,0.0000,0.0000,0.0000,0.0000,0.0000,0
2026-04-17,14:49:07,6681,1,-7.9840,-0.7943,0.0198,0.5819,9.6148,0,1.0000,-998,1,47.9280,-3.3506,-4.6086,-7.0145,169.4144,0.000,0.000,0.900,0.0000,0.0000,0.0000,0.0000,0.0000,0.0000,0
2026-04-17,14:49:07,6717,1,-7.9840,-0.3326,0.0470,1.3809,9.6188,0,1.0000,-998,1,48.2780,6.4207,-4.8009,-6.2812,169.2922,0.000,0.000,0.897,0.0000,0.0000,0.0000,0.0000,0.0000,0.0000,0
2026-04-17,14:49:07,6752,1,-7.9840,-0.6304,0.0386,1.1344,9.6219,0,1.0000,-998,1,47.7293,-15.3825,-4.9847,-6.0374,169.4190,0.000,0.000,0.894,0.0000,0.0000,0.0000,0.0000,0.0000,0.0000,0
2026-04-17,14:49:07,6788,1,-7.9840,-0.7978,0.0411,1.2091,9.6280,0,1.0000,-998,1,48.2085,17.8217,-5.0341,-3.3003,169.3143,0.000,0.000,0.890,0.0000,0.0000,0.0000,0.0000,0.0000,0.0000,0
2026-04-17,14:49:07,6823,1,-7.9840,-0.8366,0.0587,1.7267,9.6344,0,1.0000,-998,1,48.1852,-5.0901,-5.1536,-3.6605,169.2983,0.000,0.000,0.887,0.0000,0.0000,0.0000,0.0000,0.0000,0.0000,0
2026-04-17,14:49:07,6858,1,-7.9840,-0.8068,0.0512,1.5061,9.6400,0,1.0000,-998,1,47.8844,-6.2604,-5.3213,-4.9044,169.1324,0.000,0.000,0.884,0.0000,0.0000,0.0000,0.0000,0.0000,0.0000,0
2026-04-17,14:49:07,6894,1,-7.9840,-0.9414,0.0354,1.0403,9.6470,0,1.0000,-998,1,48.1600,5.9926,-5.5565,-5.7612,169.1873,0.000,0.000,0.881,0.0000,0.0000,0.0000,0.0000,0.0000,0.0000,0
2026-04-17,14:49:07,6930,1,-7.9840,-1.0380,0.0412,1.2120,9.6543,0,1.0000,-998,1,47.7971,-11.3751,-5.6294,-3.2714,169.2127,0.000,0.000,0.878,0.0000,0.0000,0.0000,0.0000,0.0000,0.0000,0
2026-04-17,14:49:07,6965,1,-7.9840,-0.8799,0.0331,0.9748,9.6619,0,1.0000,-998,1,48.2494,15.4086,-5.5903,-0.2292,169.2991,0.000,0.000,0.874,0.0000,0.0000,0.0000,0.0000,0.0000,0.0000,0
2026-04-17,14:49:07,7001,1,-7.9840,-0.7854,0.0316,0.9287,9.6676,0,1.0000,-998,1,47.9706,-15.3772,-5.6659,-1.5247,169.2721,0.000,0.000,0.871,0.0000,0.0000,0.0000,0.0000,0.0000,0.0000,0
2026-04-17,14:49:07,7036,1,-7.9840,-0.6262,0.0206,0.6069,9.6734,0,1.0000,-998,1,47.9566,7.7335,-5.7544,-2.6026,169.3323,0.000,0.000,0.868,0.0000,0.0000,0.0000,0.0000,0.0000,0.0000,0
2026-04-17,14:49:07,7073,1,-7.9840,-0.0358,0.0331,0.9745,9.6760,0,1.0000,-998,1,48.4691,7.3894,-5.8215,-2.5686,169.1007,0.000,0.000,0.865,0.0000,0.0000,0.0000,0.0000,0.0000,0.0000,0
2026-04-17,14:49:07,7109,1,-7.9840,-0.2484,0.0293,0.8625,9.6776,0,1.0000,-998,1,47.7630,-15.6181,-6.1577,-7.1935,169.0276,0.000,0.000,0.862,0.0000,0.0000,0.0000,0.0000,0.0000,0.0000,0
2026-04-17,14:49:07,7145,1,-7.9840,-0.5842,0.0351,1.0324,9.6813,0,1.0000,-998,1,48.1921,12.2388,-6.2817,-4.2250,169.1353,0.000,0.000,0.858,0.0000,0.0000,0.0000,0.0000,0.0000,0.0000,0
2026-04-17,14:49:07,7181,1,-7.9840,-0.8667,0.0410,1.2048,9.6872,0,1.0000,-998,1,48.0690,-6.0051,-6.2758,-1.5673,169.2378,0.000,0.000,0.855,0.0000,0.0000,0.0000,0.0000,0.0000,0.0000,0
2026-04-17,14:49:07,7217,1,-7.9840,-0.8936,0.0345,1.0152,9.6938,0,1.0000,-998,1,48.1909,6.4061,-6.2064,1.2815,169.1196,0.000,0.000,0.852,0.0000,0.0000,0.0000,0.0000,0.0000,0.0000,0
2026-04-17,14:49:07,7252,1,-7.9840,-0.4697,0.0446,1.3124,9.6972,0,1.0000,-998,1,48.1192,-9.0012,-6.2367,-0.0090,168.9579,0.000,0.000,0.849,0.0000,0.0000,0.0000,0.0000,0.0000,0.0000,0
2026-04-17,14:49:07,7286,1,-7.9840,-0.6451,0.0459,1.3487,9.7000,0,1.0000,-998,1,48.0039,-6.8157,-6.3044,-0.5178,168.8656,0.000,0.000,0.847,0.0000,0.0000,0.0000,0.0000,0.0000,0.0000,0
2026-04-17,14:49:07,7321,1,-7.9840,-0.4260,0.0379,1.1157,9.7056,0,1.0000,-998,1,48.5204,11.5756,-6.1032,4.0433,168.9941,0.000,0.000,0.844,0.0000,0.0000,0.0000,0.0000,0.0000,0.0000,0
2026-04-17,14:49:07,7357,1,-7.9840,-0.2600,0.0279,0.8207,9.7066,0,1.0000,-998,1,48.0636,-18.6348,-6.0270,2.5455,168.9572,0.000,0.000,0.841,0.0000,0.0000,0.0000,0.0000,0.0000,0.0000,0
2026-04-17,14:49:07,7392,1,-7.9840,-0.2815,0.0144,0.4235,9.7090,0,1.0000,-998,1,48.1548,9.4345,-6.0361,1.4399,169.0474,0.000,0.000,0.838,0.0000,0.0000,0.0000,0.0000,0.0000,0.0000,0
2026-04-17,14:49:07,7428,1,-7.9840,-0.0486,0.0135,0.3979,9.7093,0,1.0000,-998,1,48.4902,3.5762,-5.7443,6.9234,169.0488,0.000,0.000,0.834,0.0000,0.0000,0.0000,0.0000,0.0000,0.0000,0
2026-04-17,14:49:07,7463,1,-7.9840,-0.1352,0.0305,0.8971,9.7101,0,1.0000,-998,1,48.1721,-6.7212,-5.4981,7.4579,168.8351,0.000,0.000,0.831,0.0000,0.0000,0.0000,0.0000,0.0000,0.0000,0
2026-04-17,14:49:07,7499,1,-7.9840,-0.4663,0.0549,1.6134,9.7130,0,1.0000,-998,1,48.4437,6.7693,-5.5644,1.6429,168.3229,0.000,0.000,0.828,0.0000,0.0000,0.0000,0.0000,0.0000,0.0000,0
2026-04-17,14:49:07,7534,1,-7.9840,-0.6228,0.0511,1.5036,9.7167,0,1.0000,-998,1,48.1305,-12.1051,-5.6354,0.6544,168.2551,0.000,0.000,0.825,0.0000,0.0000,0.0000,0.0000,0.0000,0.0000,0
2026-04-17,14:49:07,7569,1,-7.9840,-0.6212,0.0292,0.8575,9.7216,0,1.0000,-998,1,48.3377,8.1244,-5.4908,3.8212,168.6526,0.000,0.000,0.822,0.0000,0.0000,0.0000,0.0000,0.0000,0.0000,0
2026-04-17,14:49:08,7605,1,-7.9840,-0.4495,0.0306,0.8999,9.7266,0,1.0000,-998,1,48.3056,-1.5881,-5.2364,5.9770,168.8732,0.000,0.000,0.818,0.0000,0.0000,0.0000,0.0000,0.0000,0.0000,0
2026-04-17,14:49:08,7640,1,-7.9840,-0.6562,0.0390,1.1475,9.7316,0,1.0000,-998,1,48.1555,-1.3768,-5.1049,4.4475,168.9114,0.000,0.000,0.815,0.0000,0.0000,0.0000,0.0000,0.0000,0.0000,0
2026-04-17,14:49:08,7675,1,-7.9840,-0.5650,0.0252,0.7406,9.7367,0,1.0000,-998,1,48.2388,-0.4399,-5.1284,0.9251,169.1481,0.000,0.000,0.812,0.0000,0.0000,0.0000,0.0000,0.0000,0.0000,0
2026-04-17,14:49:08,7710,1,-7.9840,-0.3063,0.0221,0.6501,9.7395,0,1.0000,-998,1,48.1604,-1.2895,-5.1705,-0.4916,169.0935,0.000,0.000,0.809,0.0000,0.0000,0.0000,0.0000,0.0000,0.0000,0
2026-04-17,14:49:08,7746,1,-7.9840,-0.0955,0.0193,0.5679,9.7403,0,1.0000,-998,1,48.1651,-1.3660,-5.0349,3.0848,169.2803,0.000,0.000,0.806,0.0000,0.0000,0.0000,0.0000,0.0000,0.0000,0
2026-04-17,14:49:08,7781,1,-7.9840,-0.0110,0.0201,0.5906,9.7410,0,1.0000,-998,1,48.2057,3.8409,-4.7902,6.0545,169.2598,0.000,0.000,0.802,0.0000,0.0000,0.0000,0.0000,0.0000,0.0000,0
2026-04-17,14:49:08,7817,1,-7.9840,-0.1612,0.0343,1.0099,9.7418,0,1.0000,-998,1,48.3208,0.9823,-4.5603,6.8062,169.3284,0.000,0.000,0.799,0.0000,0.0000,0.0000,0.0000,0.0000,0.0000,0
2026-04-17,14:49:08,7852,1,-7.9840,-0.2544,0.0360,1.0594,9.7434,0,1.0000,-998,1,48.2218,-0.4947,-4.4026,5.4567,169.3312,0.000,0.000,0.796,0.0000,0.0000,0.0000,0.0000,0.0000,0.0000,0
2026-04-17,14:49:08,7887,1,-7.9840,-0.6128,0.0445,1.3102,9.7467,0,1.0000,-998,1,48.1323,-5.9161,-4.3357,2.9921,169.4255,0.000,0.000,0.793,0.0000,0.0000,0.0000,0.0000,0.0000,0.0000,0
2026-04-17,14:49:08,7923,1,-7.9840,-0.6649,0.0329,0.9667,9.7519,0,1.0000,-998,1,48.2398,3.7786,-4.4254,-1.2721,169.4304,0.000,0.000,0.790,0.0000,0.0000,0.0000,0.0000,0.0000,0.0000,0
2026-04-17,14:49:08,7959,1,-7.9840,-0.9164,0.0454,1.3355,9.7583,0,1.0000,-998,1,48.2215,-1.9092,-4.5994,-4.2197,169.5021,0.000,0.000,0.786,0.0000,0.0000,0.0000,0.0000,0.0000,0.0000,0
2026-04-17,14:49:08,7996,1,-7.9840,-1.1085,0.0460,1.3533,9.7664,0,1.0000,-998,1,48.1266,-1.7491,-4.6407,-2.0007,169.5108,0.000,0.000,0.783,0.0000,0.0000,0.0000,0.0000,0.0000,0.0000,0
2026-04-17,14:49:08,8031,1,-7.9840,-0.9299,0.0640,1.8810,9.7747,0,1.0000,-998,1,48.1496,1.7084,-4.6454,-0.7400,169.4962,0.000,0.000,0.780,0.0000,0.0000,0.0000,0.0000,0.0000,0.0000,0
2026-04-17,14:49:08,8064,1,-7.9840,-0.9840,0.0698,2.0544,9.7793,0,1.0000,-998,1,48.1854,1.5310,-4.6436,-0.5757,169.5282,0.000,0.000,0.778,0.0000,0.0000,0.0000,0.0000,0.0000,0.0000,0
2026-04-17,14:49:08,8100,1,-7.9840,-1.0688,0.0380,1.1188,9.7880,0,1.0000,-998,1,48.0926,-1.6537,-4.6802,-1.4611,169.5257,0.000,0.000,0.775,0.0000,0.0000,0.0000,0.0000,0.0000,0.0000,0
2026-04-17,14:49:08,8137,1,-7.9840,-1.0010,0.0342,1.0057,9.7961,0,1.0000,-998,1,48.2269,1.6615,-4.8868,-4.8777,169.5776,0.000,0.000,0.772,0.0000,0.0000,0.0000,0.0000,0.0000,0.0000,0
2026-04-17,14:49:08,8172,1,-7.9840,-0.3863,0.0517,1.5210,9.8012,0,1.0000,-998,1,48.2883,2.3271,-5.0775,-5.3749,169.4665,0.000,0.000,0.769,0.0000,0.0000,0.0000,0.0000,0.0000,0.0000,0
2026-04-17,14:49:08,8208,1,-7.9840,-0.5276,0.0374,1.0996,9.8039,0,1.0000,-998,1,48.0253,-11.3679,-5.1072,-2.7308,169.6552,0.000,0.000,0.766,0.0000,0.0000,0.0000,0.0000,0.0000,0.0000,0
2026-04-17,14:49:08,8243,1,-7.9840,-0.8294,0.0456,1.3398,9.8095,0,1.0000,-998,1,48.2148,12.0693,-5.0577,0.0375,169.5923,0.000,0.000,0.762,0.0000,0.0000,0.0000,0.0000,0.0000,0.0000,0
2026-04-17,14:49:08,8278,1,-7.9840,-0.7863,0.0396,1.1652,9.8155,0,1.0000,-998,1,48.4606,1.6747,-5.1551,-2.5024,169.6939,0.000,0.000,0.759,0.0000,0.0000,0.0000,0.0000,0.0000,0.0000,0
2026-04-17,14:49:08,8315,1,-7.9840,-1.1617,0.0644,1.8940,9.8235,0,1.0000,-998,1,49.6730,28.2863,-5.0994,-0.0665,169.8842,0.000,0.000,0.756,0.0000,0.0000,0.0000,0.0000,0.0000,0.0000,0
2026-04-17,14:49:08,8350,1,-7.9840,-1.2885,0.0573,1.6848,9.8324,0,1.0000,-998,1,49.9442,-4.5473,-4.9635,2.1382,170.1740,0.000,0.000,0.753,0.0000,0.0000,0.0000,0.0000,0.0000,0.0000,0
2026-04-17,14:49:08,8385,1,-7.9840,-1.5776,0.0727,2.1368,9.8438,0,1.0000,-998,1,49.0740,-23.8620,-4.6915,5.2523,170.8997,0.000,0.000,0.750,0.0000,0.0000,0.0000,0.0000,0.0000,0.0000,0
2026-04-17,14:49:08,8421,1,-7.9840,-1.8590,0.0760,2.2346,9.8568,0,1.0000,-998,1,48.6237,-17.0948,-4.3978,6.4295,171.3103,0.064,0.000,0.746,0.0000,0.0000,0.0000,0.0000,0.0000,0.0000,0
2026-04-17,14:49:08,8456,1,-7.9840,-2.2007,0.0902,2.6526,9.8717,0,1.0000,-998,1,47.9044,-21.7614,-4.3374,1.5609,171.3007,0.128,0.000,0.761,0.0000,0.0000,0.0000,0.0000,0.0000,0.0000,0
2026-04-17,14:49:08,8492,1,-7.9840,-2.4138,0.0907,2.6683,9.8888,0,1.0000,-998,1,47.6018,-8.9242,-4.6796,-8.0420,170.9512,0.192,0.000,0.793,0.0000,0.0000,0.0000,0.0000,0.0000,0.0000,0
2026-04-17,14:49:08,8529,1,0.0000,-1.3271,0.2139,6.2898,9.9068,0,1.0000,0,1,47.4342,5.5735,-5.0103,-8.9320,171.4016,0.256,0.000,0.825,0.0000,0.0000,0.0000,0.0000,0.0000,0.0000,0
2026-04-17,14:49:08,8565,1,0.0000,0.0601,0.1494,4.3941,9.9067,0,1.0000,0,1,46.8574,-28.7308,-4.8091,-0.1533,171.8726,0.320,0.000,0.857,0.0000,0.0000,0.0000,0.0000,0.0000,0.0000,0
2026-04-17,14:49:09,8600,1,0.0000,0.0425,0.1473,4.3327,9.9065,0,1.0000,0,1,46.1277,-14.3518,-4.7269,-0.2446,171.9915,0.384,0.000,0.889,0.0000,0.0000,0.0000,0.0000,0.0000,0.0000,0
2026-04-17,14:49:09,8636,1,0.0000,0.0761,0.1333,3.9205,9.9058,0,1.0000,0,1,46.4699,2.9028,-4.8245,-3.3981,171.4907,0.448,0.000,0.921,0.0000,0.0000,0.0000,0.0000,0.0000,0.0000,0
2026-04-17,14:49:09,8671,1,0.0000,-0.1220,0.1491,4.3856,9.9061,0,1.0000,0,1,46.1196,-9.0432,-4.8774,-2.3174,171.8388,0.512,0.000,0.953,0.0000,0.0000,0.0000,0.0000,0.0000,0.0000,0
2026-04-17,14:49:09,8707,1,0.0000,0.0293,0.1557,4.5790,9.9069,0,1.0000,0,1,45.4099,-21.0446,-4.5580,4.3417,172.0252,0.576,0.000,0.985,0.0000,0.0000,0.0000,0.0000,0.0000,0.0000,0
2026-04-17,14:49:09,8743,1,0.0000,0.0464,0.1513,4.4514,9.9067,0,1.0000,0,1,45.6931,8.0510,-4.4981,0.6128,172.0363,0.640,0.000,1.000,0.0000,0.0000,0.0000,0.0000,0.0000,0.0000,0
2026-04-17,14:49:09,8779,1,0.0000,0.1482,0.1261,3.7081,9.9056,0,1.0000,0,1,45.2329,-15.6721,-4.4002,1.9490,172.2690,0.656,0.000,1.000,0.0000,0.0000,0.0000,0.0000,0.0000,0.0000,0
2026-04-17,14:49:09,8815,1,0.0000,0.0768,0.1203,3.5394,9.9052,0,1.0000,0,1,45.2882,3.3824,-3.9447,8.6453,172.7409,0.696,0.000,1.000,0.0000,0.0000,0.0000,0.0000,0.0000,0.0000,0
2026-04-17,14:49:09,8848,1,0.0000,-0.0408,0.1259,3.7021,9.9051,0,1.0000,0,1,45.1985,1.3029,-2.9471,12.9636,173.6937,0.680,0.000,1.000,0.0000,0.0000,0.0000,0.0000,0.0000,0.0000,0
2026-04-17,14:49:09,8883,1,0.0000,-0.1105,0.1436,4.2249,9.9058,0,1.0000,0,1,44.6432,-13.4544,-2.2679,15.4697,173.7614,0.720,0.000,1.000,0.0000,0.0000,0.0000,0.0000,0.0000,0.0000,0
2026-04-17,14:49:09,8918,1,0.0000,-0.0273,0.1412,4.1533,9.9060,0,1.0000,0,1,44.5703,-2.8342,-1.9722,9.3487,172.9434,0.784,0.000,1.000,0.0000,0.0000,0.0000,0.0000,0.0000,0.0000,0
2026-04-17,14:49:09,8954,1,0.0000,0.0527,0.1331,3.9151,9.9057,0,1.0000,0,1,44.1520,-8.1814,-2.1821,-1.5148,172.3462,0.848,0.000,1.000,0.0000,0.0000,0.0000,0.0000,0.0000,0.0000,0
2026-04-17,14:49:09,8989,1,0.0000,0.0676,0.1197,3.5191,9.9051,0,1.0000,0,1,44.5957,15.7921,-2.0218,3.2915,172.6312,0.864,0.000,1.000,0.0000,0.0000,0.0000,0.0000,0.0000,0.0000,0
2026-04-17,14:49:09,9024,1,0.0000,-0.0403,0.1261,3.7097,9.9051,0,1.0000,0,1,44.6688,-1.8411,-1.4493,11.7786,173.2766,0.832,0.000,1.000,0.0000,0.0000,0.0000,0.0000,0.0000,0.0000,0
2026-04-17,14:49:09,9059,1,0.0000,-0.0768,0.1379,4.0554,9.9056,0,1.0000,0,1,44.3011,-8.2321,-0.5755,19.8529,174.2609,0.800,0.000,1.000,0.0000,0.0000,0.0000,0.0000,0.0000,0.0000,0
2026-04-17,14:49:09,9094,1,0.0000,0.0060,0.1339,3.9371,9.9056,0,1.0000,0,1,44.1043,-4.7159,0.0733,16.4404,174.0035,0.768,0.000,1.000,0.0000,0.0000,0.0000,0.0000,0.0000,0.0000,0
2026-04-17,14:49:09,9129,1,0.0000,0.0078,0.1310,3.8544,9.9055,0,1.0000,0,0,44.1525,1.8198,0.1000,4.6541,173.1390,0.736,0.000,1.000,0.0000,0.0000,0.0000,0.0000,0.0000,0.0000,0
2026-04-17,14:49:09,9165,1,0.0000,0.0142,0.1304,3.8340,9.9055,0,1.0000,0,0,44.2068,-1.9106,-0.0385,-1.7135,172.6697,0.704,0.000,1.000,0.0000,0.0000,0.0000,0.0000,0.0000,0.0000,0
2026-04-17,14:49:09,9201,1,0.0000,0.0926,0.1220,3.5884,9.9052,0,1.0000,0,0,44.1000,1.8959,0.0090,0.1678,172.8974,0.672,0.000,1.000,0.0000,0.0000,0.0000,0.0000,0.0000,0.0000,0
2026-04-17,14:49:09,9236,1,0.0000,0.0836,0.1158,3.4056,9.9049,0,1.0000,0,0,44.4066,5.6342,0.4098,7.0836,173.0129,0.640,0.000,1.000,0.0000,0.0000,0.0000,0.0000,0.0000,0.0000,0
2026-04-17,14:49:09,9271,1,0.0000,-0.0310,0.1192,3.5047,9.9047,0,1.0000,0,0,44.4532,5.4167,0.9858,13.0897,173.1928,0.608,0.000,1.000,0.0000,0.0000,0.0000,0.0000,0.0000,0.0000,0
2026-04-17,14:49:09,9306,1,0.0000,-0.0228,0.1226,3.6054,9.9049,0,1.0000,0,0,44.1207,-7.4799,1.5949,15.4127,173.4556,0.576,0.000,1.000,0.0000,0.0000,0.0000,0.0000,0.0000,0.0000,0
2026-04-17,14:49:09,9341,1,0.0000,0.0236,0.1249,3.6746,9.9052,0,1.0000,0,0,43.7690,-10.5490,2.1589,14.4145,173.5621,0.568,0.000,1.000,0.0000,0.0000,0.0000,0.0000,0.0000,0.0000,0
2026-04-17,14:49:09,9377,1,0.0000,0.1810,0.0931,2.7388,9.9039,0,1.0000,0,0,44.0302,11.8650,2.2785,5.8624,172.6674,0.560,0.000,1.000,0.0000,0.0000,0.0000,0.0000,0.0000,0.0000,0
2026-04-17,14:49:09,9412,1,0.0000,0.0537,0.0840,2.4699,9.9031,0,1.0000,0,0,44.2695,2.3783,2.0968,-2.0743,171.9806,0.528,0.000,1.000,0.0000,0.0000,0.0000,0.0000,0.0000,0.0000,0
2026-04-17,14:49:09,9447,1,0.0000,-0.0035,0.0805,2.3691,9.9028,0,1.0000,0,0,44.4519,11.4845,1.9763,-3.2596,171.7146,0.496,0.000,1.000,0.0000,0.0000,0.0000,0.0000,0.0000,0.0000,0
2026-04-17,14:49:09,9483,1,0.0000,0.0190,0.0798,2.3469,9.9028,0,1.0000,0,0,44.6784,-0.1612,1.9441,-2.3267,171.5400,0.464,0.000,1.000,0.0000,0.0000,0.0000,0.0000,0.0000,0.0000,0
2026-04-17,14:49:09,9518,1,0.0000,-0.0147,0.0821,2.4160,9.9028,0,1.0000,0,0,44.5762,4.0780,2.0365,0.8035,171.5922,0.432,0.000,1.000,0.0000,0.0000,0.0000,0.0000,0.0000,0.0000,0
2026-04-17,14:49:09,9553,1,0.0000,-0.0072,0.0821,2.4145,9.9028,0,1.0000,0,0,44.8587,6.5294,2.4350,7.7840,172.0430,0.400,0.000,1.000,0.0000,0.0000,0.0000,0.0000,0.0000,0.0000,0
2026-04-17,14:49:09,9589,1,0.0000,-0.0171,0.0852,2.5053,9.9029,0,1.0000,0,0,44.6757,-5.8533,2.9223,10.8410,172.1371,0.368,0.000,1.000,0.0000,0.0000,0.0000,0.0000,0.0000,0.0000,0
2026-04-17,14:49:10,9624,1,0.0000,-0.0187,0.0849,2.4983,9.9030,0,1.0000,0,0,44.7232,3.6373,3.2067,8.0578,171.4937,0.336,0.000,1.000,0.0000,0.0000,0.0000,0.0000,0.0000,0.0000,0
2026-04-17,14:49:10,9664,1,0.0000,0.0091,0.0834,2.4521,9.9030,0,1.0000,0,0,44.6911,1.0843,3.2066,5.5563,171.3201,0.312,0.000,1.000,0.0000,0.0000,0.0000,0.0000,0.0000,0.0000,0
2026-04-17,14:49:10,9700,1,0.0000,0.0215,0.0796,2.3406,9.9028,0,1.0000,0,0,44.9057,9.4412,3.1124,-0.1221,170.9433,0.280,0.000,1.000,0.0000,0.0000,0.0000,0.0000,0.0000,0.0000,0
2026-04-17,14:49:10,9735,1,0.0000,0.0016,0.0802,2.3585,9.9027,0,1.0000,0,0,45.0073,0.8052,3.0011,-2.2244,170.5409,0.248,0.000,1.000,0.0000,0.0000,0.0000,0.0000,0.0000,0.0000,0
2026-04-17,14:49:10,9770,1,0.0000,0.0090,0.0791,2.3254,9.9027,0,1.0000,0,0,44.9751,1.3880,2.8865,-2.8466,170.2734,0.216,0.000,1.000,0.0000,0.0000,0.0000,0.0000,0.0000,0.0000,0
2026-04-17,14:49:10,9805,1,0.0000,0.0202,0.0785,2.3075,9.9027,0,1.0000,0,0,45.0912,2.1716,2.9326,0.1848,170.0507,0.184,0.000,1.000,0.0000,0.0000,0.0000,0.0000,0.0000,0.0000,0
2026-04-17,14:49:10,9840,1,-3.1600,0.0326,0.0751,2.2077,9.9025,0,1.0000,-395,1,45.0134,-1.5076,2.9829,0.9357,169.9237,0.152,0.000,0.997,0.0000,0.0000,0.0000,0.0000,0.0000,0.0000,0
2026-04-17,14:49:10,9877,1,-3.1600,-0.0573,0.0568,1.6705,9.9026,0,1.0000,-395,1,45.1739,4.8253,3.0658,2.2693,169.7137,0.120,0.000,0.994,0.0000,0.0000,0.0000,0.0000,0.0000,0.0000,0
2026-04-17,14:49:10,9912,1,-3.1600,-0.2201,0.0245,0.7205,9.9037,0,1.0000,-395,1,45.1478,-0.3727,3.1529,2.2401,169.5161,0.088,0.000,1.000,0.0000,0.0000,0.0000,0.0000,0.0000,0.0000,0
2026-04-17,14:49:10,9947,1,-7.9840,-0.3029,0.0428,1.2590,9.9063,0,1.0000,-998,1,45.2791,3.6575,3.0779,-0.5940,168.9206,0.056,0.000,1.000,0.0000,0.0000,0.0000,0.0000,0.0000,0.0000,0
2026-04-17,14:49:10,9983,1,-7.9840,-0.3918,0.0451,1.3255,9.9096,0,1.0000,-998,1,45.2300,-1.5720,2.6813,-7.8336,168.2582,0.024,0.000,1.000,0.0000,0.0000,0.0000,0.0000,0.0000,0.0000,0
2026-04-17,14:49:10,10018,1,-7.9840,-0.7132,0.0476,1.4012,9.9143,0,1.0000,-998,1,45.2244,3.4857,2.3839,-7.5648,168.5143,0.000,0.000,1.000,0.0000,0.0000,0.0000,0.0000,0.0000,0.0000,0
2026-04-17,14:49:10,10054,1,-7.9840,-0.8128,0.0245,0.7193,9.9201,0,1.0000,-998,1,45.4690,4.9266,2.4967,-0.4861,168.6503,0.000,0.000,1.000,0.0000,0.0000,0.0000,0.0000,0.0000,0.0000,0
2026-04-17,14:49:10,10089,1,-7.9840,-0.5735,0.0420,1.2351,9.9245,0,1.0000,-998,1,45.3125,-6.3602,2.5819,1.4832,168.6570,0.000,0.000,1.000,0.0000,0.0000,0.0000,0.0000,0.0000,0.0000,0
2026-04-17,14:49:10,10125,1,-7.9840,-0.8373,0.0517,1.5203,9.9304,0,1.0000,-998,1,45.2937,2.8580,2.6644,2.4047,168.8157,0.000,0.000,0.998,0.0000,0.0000,0.0000,0.0000,0.0000,0.0000,0
2026-04-17,14:49:10,10161,1,-7.9840,-0.6216,0.0211,0.6199,9.9360,0,1.0000,-998,1,45.3801,1.9472,2.8365,4.1597,168.6722,0.000,0.000,0.995,0.0000,0.0000,0.0000,0.0000,0.0000,0.0000,0
2026-04-17,14:49:10,10196,1,-7.9840,-0.3993,0.0315,0.9276,9.9386,0,1.0000,-998,1,45.3449,-1.4462,2.8442,1.0929,168.7806,0.000,0.000,0.992,0.0000,0.0000,0.0000,0.0000,0.0000,0.0000,0
2026-04-17,14:49:10,10231,1,-7.9840,-0.3813,0.0466,1.3692,9.9416,0,1.0000,-998,1,45.4441,6.0814,2.7862,-0.6030,168.7488,0.000,0.000,0.989,0.0000,0.0000,0.0000,0.0000,0.0000,0.0000,0
2026-04-17,14:49:10,10267,1,-7.9840,-0.3945,0.0558,1.6408,9.9437,0,1.0000,-998,1,45.4595,-3.1122,2.6538,-3.1682,168.4963,0.000,0.000,0.986,0.0000,0.0000,0.0000,0.0000,0.0000,0.0000,0
2026-04-17,14:49:10,10302,1,-7.9840,-0.5606,0.0538,1.5837,9.9469,0,1.0000,-998,1,45.3046,-4.9474,2.4345,-4.4307,168.2591,0.000,0.000,0.982,0.0000,0.0000,0.0000,0.0000,0.0000,0.0000,0
2026-04-17,14:49:10,10338,1,-7.9840,-0.6406,0.0339,0.9982,9.9513,0,1.0000,-998,1,45.4909,3.5039,2.4182,-1.6919,168.4895,0.000,0.000,0.979,0.0000,0.0000,0.0000,0.0000,0.0000,0.0000,0
2026-04-17,14:49:10,10374,1,-7.9840,-0.9023,0.0471,1.3855,9.9582,0,1.0000,-998,1,45.3559,-1.4403,2.5396,1.9578,168.6950,0.000,0.000,0.976,0.0000,0.0000,0.0000,0.0000,0.0000,0.0000,0
2026-04-17,14:49:10,10410,1,-7.9840,-0.9690,0.0343,1.0095,9.9656,0,1.0000,-998,1,45.4785,4.3504,2.7023,3.6884,168.5817,0.000,0.000,0.973,0.0000,0.0000,0.0000,0.0000,0.0000,0.0000,0
2026-04-17,14:49:10,10451,1,-7.9840,-0.7293,0.0509,1.4980,9.9734,0,1.0000,-998,1,45.4584,-0.2986,2.7845,3.6377,168.6310,0.000,0.000,0.970,0.0000,0.0000,0.0000,0.0000,0.0000,0.0000,0
2026-04-17,14:49:10,10488,1,-7.9840,-0.8885,0.0358,1.0521,9.9794,0,1.0000,-998,1,45.3568,0.5837,2.9250,3.7335,168.6132,0.000,0.000,0.967,0.0000,0.0000,0.0000,0.0000,0.0000,0.0000,0
2026-04-17,14:49:10,10523,1,-7.9840,-0.6441,0.0656,1.9281,9.9847,0,1.0000,-998,1,45.5706,5.5764,2.9774,2.5156,168.6953,0.000,0.000,0.964,0.0000,0.0000,0.0000,0.0000,0.0000,0.0000,0
2026-04-17,14:49:10,10558,1,-7.9840,-0.5012,0.0510,1.5001,9.9877,0,1.0000,-998,1,45.2789,-11.6507,3.1377,3.7923,168.6662,0.000,0.000,0.961,0.0000,0.0000,0.0000,0.0000,0.0000,0.0000,0
2026-04-17,14:49:10,10594,1,-7.9840,-0.7960,0.0635,1.8664,9.9930,0,1.0000,-998,1,45.4721,8.1201,3.2705,3.9631,168.8787,0.000,0.000,0.958,0.0000,0.0000,0.0000,0.0000,0.0000,0.0000,0
2026-04-17,14:49:11,10629,1,-7.9840,-0.8420,0.0364,1.0692,9.9983,0,1.0000,-998,1,45.3427,-8.0416,3.3173,2.0988,168.8034,0.000,0.000,0.954,0.0000,0.0000,0.0000,0.0000,0.0000,0.0000,0
2026-04-17,14:49:11,10665,1,-2.9040,-1.0085,0.0415,1.2217,10.0052,0,1.0000,-363,1,45.3411,2.0231,3.2830,0.2555,169.0027,0.000,0.000,0.951,0.0000,0.0000,0.0000,0.0000,0.0000,0.0000,0
2026-04-17,14:49:11,10700,1,-2.9040,-0.9282,0.0245,0.7216,10.0132,0,1.0000,-363,1,45.4774,0.3531,3.3029,0.0408,168.8569,0.000,0.000,0.948,0.0000,0.0000,0.0000,0.0000,0.0000,0.0000,0
2026-04-17,14:49:11,10735,1,-2.9040,-0.5123,0.0416,1.2228,10.0178,0,1.0000,-363,1,45.2649,-7.2715,3.1340,-3.4447,168.9933,0.000,0.000,0.945,0.0000,0.0000,0.0000,0.0000,0.0000,0.0000,0
2026-04-17,14:49:11,10771,1,-0.6240,-0.8337,0.0483,1.4213,10.0233,0,1.0000,-78,1,45.3642,5.9264,3.0795,-2.3013,168.9975,0.000,0.000,0.942,0.0000,0.0000,0.0000,0.0000,0.0000,0.0000,0
2026-04-17,14:49:11,10806,1,-0.6240,-0.5044,0.0295,0.8689,10.0274,0,1.0000,-78,1,45.4174,-2.7088,3.0365,-1.4632,168.8895,0.000,0.000,0.938,0.0000,0.0000,0.0000,0.0000,0.0000,0.0000,0
2026-04-17,14:49:11,10841,1,-0.6240,-0.4318,0.0405,1.1911,10.0312,0,1.0000,-78,1,45.2435,-2.1924,2.9099,-3.6602,169.0308,0.000,0.000,0.935,0.0000,0.0000,0.0000,0.0000,0.0000,0.0000,0
2026-04-17,14:49:11,10877,1,0.0000,-0.3625,0.0210,0.6190,10.0340,0,1.0000,0,1,45.5129,8.5572,2.7639,-3.9224,168.8741,0.000,0.000,0.932,0.0000,0.0000,0.0000,0.0000,0.0000,0.0000,0
2026-04-17,14:49:11,10913,1,0.0000,-0.1045,0.0505,1.4852,10.0349,0,1.0000,0,1,45.4049,-6.8989,2.5912,-5.3976,168.9057,0.000,0.000,0.929,0.0000,0.0000,0.0000,0.0000,0.0000,0.0000,0
2026-04-17,14:49:11,10949,1,0.0000,-0.0234,0.0552,1.6244,10.0355,0,1.0000,0,1,45.4022,4.6493,2.2998,-7.9587,168.8966,0.000,0.000,0.926,0.0000,0.0000,0.0000,0.0000,0.0000,0.0000,0
2026-04-17,14:49:11,10985,1,0.0000,-0.0518,0.0639,1.8791,10.0358,0,1.0000,0,1,45.2222,-16.1595,1.9864,-9.2719,168.8161,0.000,0.000,0.922,0.0000,0.0000,0.0000,0.0000,0.0000,0.0000,0
2026-04-17,14:49:11,11021,1,0.0000,-0.0695,0.0761,2.2370,10.0364,0,1.0000,0,1,43.6818,-36.9570,1.5610,-11.1008,168.9144,0.048,0.000,0.928,0.0000,0.0000,0.0000,0.0000,0.0000,0.0000,0
2026-04-17,14:49:11,11056,1,0.0000,-0.0462,0.0835,2.4552,10.0369,0,1.0000,0,1,44.1935,26.6573,1.3815,-6.5743,168.6293,0.112,0.000,0.960,0.0000,0.0000,0.0000,0.0000,0.0000,0.0000,0
2026-04-17,14:49:11,11092,1,0.0000,-0.0179,0.0830,2.4398,10.0370,0,1.0000,0,1,44.6378,10.0986,1.3306,-3.2934,168.5052,0.080,0.000,0.992,0.0000,0.0000,0.0000,0.0000,0.0000,0.0000,0
2026-04-17,14:49:11,11127,1,0.0000,0.0029,0.0830,2.4416,10.0370,0,1.0000,0,1,45.1035,18.8351,1.3488,-0.1816,168.4201,0.048,0.000,1.000,0.0000,0.0000,0.0000,0.0000,0.0000,0.0000,0
2026-04-17,14:49:11,11162,1,0.0000,0.0087,0.0803,2.3627,10.0369,0,1.0000,0,1,45.6393,12.8715,1.4619,2.2099,168.4957,0.016,0.000,1.000,0.0000,0.0000,0.0000,0.0000,0.0000,0.0000,0
2026-04-17,14:49:11,11198,1,0.0000,0.0051,0.0783,2.3020,10.0367,0,1.0000,0,1,45.8030,10.3021,1.5719,3.0418,168.6333,0.000,0.000,1.000,0.0000,0.0000,0.0000,0.0000,0.0000,0.0000,0
2026-04-17,14:49:11,11232,1,0.0000,0.0193,0.0757,2.2256,10.0367,0,1.0000,0,1,45.9478,7.8845,1.5993,2.5661,168.6156,0.000,0.000,1.000,0.0000,0.0000,0.0000,0.0000,0.0000,0.0000,0
2026-04-17,14:49:11,11267,1,0.0000,-0.0030,0.0770,2.2637,10.0366,0,1.0000,0,1,46.0657,3.7792,1.5774,0.3330,168.5919,0.000,0.000,1.000,0.0000,0.0000,0.0000,0.0000,0.0000,0.0000,0
2026-04-17,14:49:11,11302,1,0.0000,-0.0032,0.0794,2.3344,10.0367,0,1.0000,0,1,46.4999,14.6181,1.5432,-0.4610,168.4553,0.000,0.000,1.000,0.0000,0.0000,0.0000,0.0000,0.0000,0.0000,0
2026-04-17,14:49:11,11337,1,0.0000,-0.0105,0.0812,2.3875,10.0368,0,1.0000,0,1,46.5918,1.2980,1.4688,-1.5329,168.3671,0.000,0.000,1.000,0.0000,0.0000,0.0000,0.0000,0.0000,0.0000,0
2026-04-17,14:49:11,11372,1,0.0000,0.0029,0.0804,2.3647,10.0368,0,1.0000,0,0,46.7592,8.6112,1.3373,-2.8812,168.4183,0.000,0.000,0.998,0.0000,0.0000,0.0000,0.0000,0.0000,0.0000,0
2026-04-17,14:49:11,11407,1,0.0000,0.0071,0.0781,2.2978,10.0368,0,1.0000,0,0,47.0676,6.9710,1.3046,-1.6485,168.4306,0.000,0.000,0.994,0.0000,0.0000,0.0000,0.0000,0.0000,0.0000,0
2026-04-17,14:49:11,11442,1,0.0000,0.0100,0.0785,2.3078,10.0367,0,1.0000,0,0,46.9838,-0.0847,1.1795,-3.4000,168.5086,0.000,0.000,0.991,0.0000,0.0000,0.0000,0.0000,0.0000,0.0000,0
2026-04-17,14:49:11,11477,1,0.0000,0.0181,0.0767,2.2572,10.0366,0,1.0000,0,0,47.3108,9.5880,1.0903,-2.7570,168.3953,0.000,0.000,0.988,0.0000,0.0000,0.0000,0.0000,0.0000,0.0000,0
2026-04-17,14:49:11,11512,1,0.0000,0.0124,0.0747,2.1977,10.0366,0,1.0000,0,0,47.2911,-0.6796,0.9975,-2.8246,168.2591,0.000,0.000,0.985,0.0000,0.0000,0.0000,0.0000,0.0000,0.0000,0
2026-04-17,14:49:11,11547,1,0.0000,0.0068,0.0755,2.2193,10.0365,0,1.0000,0,0,47.4813,6.6054,0.7777,-5.2561,168.0186,0.000,0.000,0.982,0.0000,0.0000,0.0000,0.0000,0.0000,0.0000,0
2026-04-17,14:49:11,11583,1,-5.3040,-0.0227,0.0758,2.2300,10.0366,0,1.0000,-663,1,47.5989,2.4825,0.5611,-5.8309,167.7939,0.000,0.000,0.978,0.0000,0.0000,0.0000,0.0000,0.0000,0.0000,0
2026-04-17,14:49:12,11619,1,-5.3040,-0.0972,0.0639,1.8788,10.0369,0,1.0000,-663,1,47.6419,1.2060,0.3140,-5.7443,167.3841,0.000,0.000,0.975,0.0000,0.0000,0.0000,0.0000,0.0000,0.0000,0
2026-04-17,14:49:12,11654,1,-5.3040,-0.2705,0.0439,1.2925,10.0386,0,1.0000,-663,1,47.7152,2.5552,0.1330,-4.7696,167.3827,0.000,0.000,0.972,0.0000,0.0000,0.0000,0.0000,0.0000,0.0000,0
2026-04-17,14:49:12,11690,1,-7.9840,-0.4638,0.0122,0.3587,10.0419,0,1.0000,-998,1,47.7897,3.1491,0.0792,-2.3558,167.6761,0.000,0.000,1.000,0.0000,0.0000,0.0000,0.0000,0.0000,0.0000,0
2026-04-17,14:49:12,11727,1,-7.9840,-0.0908,0.0320,0.9398,10.0438,0,1.0000,-998,1,47.9569,3.4922,0.0422,-1.4054,167.7698,0.000,0.000,1.000,0.0000,0.0000,0.0000,0.0000,0.0000,0.0000,0
2026-04-17,14:49:12,11762,1,-7.9840,-0.3951,0.0327,0.9611,10.0459,0,1.0000,-998,1,47.7214,-4.3119,0.0084,-0.9452,167.8865,0.000,0.000,1.000,0.0000,0.0000,0.0000,0.0000,0.0000,0.0000,0
2026-04-17,14:49:12,11797,1,-7.9840,-0.1609,0.0359,1.0558,10.0481,0,1.0000,-998,1,47.9873,9.3767,0.0081,-0.1163,168.0224,0.000,0.000,1.000,0.0000,0.0000,0.0000,0.0000,0.0000,0.0000,0
2026-04-17,14:49:12,11833,1,-7.9840,-0.2558,0.0249,0.7319,10.0491,0,1.0000,-998,1,47.9185,-6.4171,-0.0188,-0.6244,168.0279,0.000,0.000,1.000,0.0000,0.0000,0.0000,0.0000,0.0000,0.0000,0
2026-04-17,14:49:12,11868,1,-7.9840,-0.4965,0.0318,0.9355,10.0527,0,1.0000,-998,1,47.9749,6.3398,-0.0895,-1.3983,167.8171,0.000,0.000,1.000,0.0000,0.0000,0.0000,0.0000,0.0000,0.0000,0
2026-04-17,14:49:12,11904,1,-7.9840,-0.6489,0.0229,0.6726,10.0576,0,1.0000,-998,1,48.0972,0.0436,-0.3872,-6.0645,167.1292,0.000,0.000,1.000,0.0000,0.0000,0.0000,0.0000,0.0000,0.0000,0
2026-04-17,14:49:12,11940,1,-7.9840,-0.5135,0.0406,1.1951,10.0617,0,1.0000,-998,1,48.0797,1.8519,-1.1004,-15.2435,166.0969,0.000,0.000,1.000,0.0000,0.0000,0.0000,0.0000,0.0000,0.0000,0
2026-04-17,14:49:12,11975,1,-7.9840,-0.6764,0.0356,1.0475,10.0664,0,1.0000,-998,1,48.2928,5.5613,-1.7303,-15.7425,165.6836,0.000,0.000,1.000,0.0000,0.0000,0.0000,0.0000,0.0000,0.0000,0
2026-04-17,14:49:12,12015,1,-7.9840,-0.7673,0.0233,0.6855,10.0724,0,1.0000,-998,1,48.3496,2.5750,-2.2114,-14.1082,165.4018,0.000,0.000,1.000,0.0000,0.0000,0.0000,0.0000,0.0000,0.0000,0
2026-04-17,14:49:12,12050,1,-7.9840,-0.5150,0.0448,1.3170,10.0783,0,1.0000,-998,1,48.6087,7.7955,-2.0422,-1.0434,166.0004,0.000,0.000,1.000,0.0000,0.0000,0.0000,0.0000,0.0000,0.0000,0
2026-04-17,14:49:12,12085,1,-7.9840,-0.7192,0.0497,1.4611,10.0836,0,1.0000,-998,1,48.2556,-7.7312,-1.9022,2.2644,166.4627,0.000,0.000,1.000,0.0000,0.0000,0.0000,0.0000,0.0000,0.0000,0
2026-04-17,14:49:12,12121,1,-7.9840,-0.8127,0.0224,0.6582,10.0897,0,1.0000,-998,1,48.4218,6.2118,-1.9426,0.0232,166.7279,0.000,0.000,1.000,0.0000,0.0000,0.0000,0.0000,0.0000,0.0000,0
2026-04-17,14:49:12,12157,1,-7.9840,-0.4871,0.0555,1.6337,10.0942,0,1.0000,-998,1,48.4621,-3.3667,-2.2704,-7.1807,166.4859,0.000,0.000,1.000,0.0000,0.0000,0.0000,0.0000,0.0000,0.0000,0
2026-04-17,14:49:12,12192,1,-7.9840,-0.7910,0.0594,1.7468,10.0989,0,1.0000,-998,1,48.2225,-3.6328,-2.9192,-14.9270,166.0524,0.000,0.000,1.000,0.0000,0.0000,0.0000,0.0000,0.0000,0.0000,0
2026-04-17,14:49:12,12229,1,-7.9840,-0.8649,0.0312,0.9180,10.1047,0,1.0000,-998,1,48.1157,6.0127,-3.5630,-16.0067,165.8361,0.000,0.000,1.000,0.0000,0.0000,0.0000,0.0000,0.0000,0.0000,0
2026-04-17,14:49:12,12264,1,-7.9840,-0.8613,0.0410,1.2045,10.1107,0,1.0000,-998,1,48.2762,8.4726,-3.7663,-7.9222,166.0827,0.000,0.000,1.000,0.0000,0.0000,0.0000,0.0000,0.0000,0.0000,0
2026-04-17,14:49:12,12299,1,-7.9840,-0.9741,0.0333,0.9796,10.1181,0,1.0000,-998,1,48.5373,8.8673,-3.7528,-1.6202,166.4953,0.000,0.000,1.000,0.0000,0.0000,0.0000,0.0000,0.0000,0.0000,0
2026-04-17,14:49:12,12334,1,-7.9840,-0.2650,0.0488,1.4351,10.1236,0,1.0000,-998,1,48.5524,0.7900,-3.6292,1.8525,166.5767,0.000,0.000,1.000,0.0000,0.0000,0.0000,0.0000,0.0000,0.0000,0
2026-04-17,14:49:12,12370,1,-7.9840,-0.5961,0.0482,1.4173,10.1270,0,1.0000,-998,1,48.5039,-1.3987,-3.7549,-1.4817,166.5674,0.000,0.000,1.000,0.0000,0.0000,0.0000,0.0000,0.0000,0.0000,0
2026-04-17,14:49:12,12405,1,-7.9840,-0.6442,0.0245,0.7192,10.1318,0,1.0000,-998,1,48.7911,8.4562,-3.9145,-2.9163,166.7113,0.000,0.000,1.000,0.0000,0.0000,0.0000,0.0000,0.0000,0.0000,0
2026-04-17,14:49:12,12441,1,-7.9840,-0.2083,0.0271,0.7973,10.1352,0,1.0000,-998,1,48.9815,6.7790,-4.0417,-3.4242,166.7253,0.000,0.000,1.000,0.0000,0.0000,0.0000,0.0000,0.0000,0.0000,0
2026-04-17,14:49:12,12476,1,-7.9840,-0.7022,0.0429,1.2624,10.1388,0,1.0000,-998,1,48.7635,-7.5414,-4.2400,-4.3181,166.4706,0.000,0.000,1.000,0.0000,0.0000,0.0000,0.0000,0.0000,0.0000,0
2026-04-17,14:49:12,12511,1,-0.8900,-0.9165,0.0509,1.4968,10.1449,0,1.0000,-998,0,49.0545,9.2931,-4.3883,-3.3470,166.2991,0.000,0.000,1.000,0.0000,0.0000,0.0000,0.0000,0.0000,0.0000,0
2026-04-17,14:49:12,12547,1,-0.7131,-0.9137,0.0369,1.0844,10.1512,0,1.0000,-998,0,49.1788,-0.2687,-4.4671,-1.4816,166.0486,0.000,0.000,0.997,0.0000,0.0000,0.0000,0.0000,0.0000,0.0000,0
2026-04-17,14:49:12,12582,1,-0.7131,-0.8660,0.0607,1.7854,10.1574,0,1.0000,-998,0,48.7029,-15.4316,-4.6957,-4.1210,165.8381,0.000,0.000,0.994,0.0000,0.0000,0.0000,0.0000,0.0000,0.0000,0
2026-04-17,14:49:13,12618,1,-0.7131,-0.6421,0.0463,1.3626,10.1628,0,1.0000,-998,0,48.2514,-9.9175,-4.9486,-4.6409,165.9202,0.048,0.000,0.999,0.0000,0.0000,0.0000,0.0000,0.0000,0.0000,0
2026-04-17,14:49:13,12654,1,-0.7131,-0.7491,0.0397,1.1662,10.1676,0,1.0000,-998,0,48.3685,9.6635,-5.0328,-1.7926,166.2721,0.088,0.000,0.999,0.0000,0.0000,0.0000,0.0000,0.0000,0.0000,0
2026-04-17,14:49:13,12689,1,-0.7131,-0.7591,0.0533,1.5672,10.1737,0,1.0000,-998,0,48.9299,17.9259,-4.9095,2.4575,166.7926,0.056,0.000,0.996,0.0000,0.0000,0.0000,0.0000,0.0000,0.0000,0
2026-04-17,14:49:13,12724,1,-0.7131,-0.5503,0.0404,1.1885,10.1788,0,1.0000,-998,0,49.0553,4.8424,-4.7633,3.9313,166.8723,0.024,0.000,0.993,0.0000,0.0000,0.0000,0.0000,0.0000,0.0000,0
2026-04-17,14:49:13,12759,1,-0.7131,-0.6859,0.0318,0.9365,10.1835,0,1.0000,-998,0,49.2956,10.4694,-4.7571,1.7644,167.0529,0.000,0.000,0.990,0.0000,0.0000,0.0000,0.0000,0.0000,0.0000,0
2026-04-17,14:49:13,12792,1,-0.5837,-0.6999,0.0296,0.8703,10.1867,0,1.0000,-998,0,49.4370,7.9552,-4.8567,0.6055,167.0170,0.000,0.000,0.988,0.0000,0.0000,0.0000,0.0000,0.0000,0.0000,0
2026-04-17,14:49:13,12827,1,-0.5837,-0.7056,0.0420,1.2361,10.1927,0,1.0000,-998,0,49.6233,3.2173,-4.8754,0.0239,166.8672,0.000,0.000,0.985,0.0000,0.0000,0.0000,0.0000,0.0000,0.0000,0
2026-04-17,14:49:13,12863,1,-0.5837,-0.6800,0.0408,1.1997,10.1972,0,1.0000,-998,0,49.7775,4.1394,-5.1943,-5.6293,166.1964,0.000,0.000,0.982,0.0000,0.0000,0.0000,0.0000,0.0000,0.0000,0
2026-04-17,14:49:13,12898,1,-0.5837,-0.5908,0.0496,1.4577,10.2023,0,1.0000,-998,0,50.0528,9.5028,-5.5608,-7.5425,165.6105,0.000,0.000,0.978,0.0000,0.0000,0.0000,0.0000,0.0000,0.0000,0
2026-04-17,14:49:13,12934,1,-0.5837,-0.4943,0.0529,1.5567,10.2072,0,1.0000,-998,0,50.1883,-3.5035,-5.8672,-6.7979,165.5069,0.000,0.000,1.000,0.0000,0.0000,0.0000,0.0000,0.0000,0.0000,0
2026-04-17,14:49:13,12969,1,-0.5837,-0.6131,0.0491,1.4455,10.2109,0,1.0000,-998,0,49.7994,-2.3554,-6.0221,-3.6282,165.9790,0.000,0.000,0.999,0.0000,0.0000,0.0000,0.0000,0.0000,0.0000,0
2026-04-17,14:49:13,13004,1,-0.5837,-0.5240,0.0399,1.1731,10.2150,0,1.0000,-998,0,50.3220,14.5656,-5.8706,2.0989,166.6490,0.000,0.000,0.996,0.0000,0.0000,0.0000,0.0000,0.0000,0.0000,0
2026-04-17,14:49:13,13040,1,-7.9840,-0.5907,0.0213,0.6276,10.2191,0,1.0000,-998,1,50.4456,2.3428,-5.6369,5.0896,167.1830,0.000,0.000,0.993,0.0000,0.0000,0.0000,0.0000,0.0000,0.0000,0
2026-04-17,14:49:13,13076,1,-7.9840,-0.3331,0.0283,0.8323,10.2226,0,1.0000,-998,1,50.8059,12.6132,-5.5823,2.9394,167.4610,0.000,0.000,0.990,0.0000,0.0000,0.0000,0.0000,0.0000,0.0000,0
2026-04-17,14:49:13,13112,1,-7.9840,-0.2820,0.0221,0.6487,10.2255,0,1.0000,-998,1,50.7740,-1.5299,-5.5466,1.5448,167.5373,0.000,0.000,1.000,0.0000,0.0000,0.0000,0.0000,0.0000,0.0000,0
2026-04-17,14:49:13,13148,1,-7.9840,-0.1393,0.0155,0.4563,10.2262,0,1.0000,-998,1,50.9320,6.5268,-5.8810,-5.9589,167.2079,0.000,0.000,1.000,0.0000,0.0000,0.0000,0.0000,0.0000,0.0000,0
2026-04-17,14:49:13,13183,1,-7.9840,-0.1789,0.0303,0.8913,10.2272,0,1.0000,-998,1,51.2123,6.3957,-6.2989,-9.6813,166.9344,0.000,0.000,1.000,0.0000,0.0000,0.0000,0.0000,0.0000,0.0000,0
2026-04-17,14:49:13,13218,1,-7.9840,-0.2692,0.0220,0.6482,10.2294,0,1.0000,-998,1,51.1899,2.4202,-6.5532,-7.1374,166.6327,0.000,0.000,1.000,0.0000,0.0000,0.0000,0.0000,0.0000,0.0000,0
2026-04-17,14:49:13,13254,1,-7.9840,-0.2574,0.0398,1.1718,10.2321,0,1.0000,-998,1,51.5485,8.8666,-6.8605,-7.5650,166.2340,0.000,0.000,1.000,0.0000,0.0000,0.0000,0.0000,0.0000,0.0000,0
2026-04-17,14:49:13,13289,1,-7.9840,-0.4683,0.0431,1.2679,10.2351,0,1.0000,-998,1,51.4206,-2.8998,-7.1416,-6.9493,165.8936,0.000,0.000,1.000,0.0000,0.0000,0.0000,0.0000,0.0000,0.0000,0
2026-04-17,14:49:13,13326,1,-7.9840,-0.6088,0.0257,0.7549,10.2394,0,1.0000,-998,1,51.7034,8.0136,-7.3487,-4.8723,166.0510,0.000,0.000,1.000,0.0000,0.0000,0.0000,0.0000,0.0000,0.0000,0
2026-04-17,14:49:13,13361,1,-7.9840,-0.3813,0.0117,0.3443,10.2430,0,1.0000,-998,1,51.7453,0.0677,-7.3438,-0.5410,166.4869,0.000,0.000,1.000,0.0000,0.0000,0.0000,0.0000,0.0000,0.0000,0
2026-04-17,14:49:13,13396,1,-7.9840,-0.0756,0.0275,0.8079,10.2443,0,1.0000,-998,1,51.7988,1.0701,-7.3621,-0.2513,166.8605,0.000,0.000,1.000,0.0000,0.0000,0.0000,0.0000,0.0000,0.0000,0
2026-04-17,14:49:13,13431,1,-7.9840,-0.4583,0.0316,0.9308,10.2464,0,1.0000,-998,1,51.7047,-2.5155,-7.4671,-1.8347,167.3018,0.000,0.000,1.000,0.0000,0.0000,0.0000,0.0000,0.0000,0.0000,0
2026-04-17,14:49:13,13467,1,-7.9840,-0.1726,0.0359,1.0555,10.2488,0,1.0000,-998,1,51.9228,7.4263,-7.5548,-2.7605,167.6941,0.000,0.000,1.000,0.0000,0.0000,0.0000,0.0000,0.0000,0.0000,0
2026-04-17,14:49:13,13502,1,-7.9840,-0.2254,0.0227,0.6673,10.2497,0,1.0000,-998,1,51.8225,-6.4220,-7.7717,-5.3903,167.7824,0.000,0.000,0.999,0.0000,0.0000,0.0000,0.0000,0.0000,0.0000,0
2026-04-17,14:49:13,13538,1,-7.9840,-0.3424,0.0179,0.5269,10.2526,0,1.0000,-998,1,51.8823,7.2496,-8.0724,-7.1946,167.7007,0.000,0.000,0.996,0.0000,0.0000,0.0000,0.0000,0.0000,0.0000,0
2026-04-17,14:49:13,13571,1,-7.9840,-0.1761,0.0301,0.8863,10.2544,0,1.0000,-998,1,52.0139,5.8275,-8.4093,-7.8095,167.2757,0.000,0.000,0.994,0.0000,0.0000,0.0000,0.0000,0.0000,0.0000,0
2026-04-17,14:49:14,13607,1,-7.9840,-0.1400,0.0183,0.5378,10.2547,0,1.0000,-998,1,51.6369,-7.9538,-9.0038,-13.5604,166.4150,0.000,0.000,0.991,0.0000,0.0000,0.0000,0.0000,0.0000,0.0000,0
2026-04-17,14:49:14,13643,1,-7.9840,-0.1175,0.0212,0.6222,10.2559,0,1.0000,-998,1,52.1515,15.1777,-9.7932,-19.0954,165.9373,0.000,0.000,0.988,0.0000,0.0000,0.0000,0.0000,0.0000,0.0000,0
2026-04-17,14:49:14,13678,1,-7.9840,-0.1925,0.0272,0.8000,10.2574,0,1.0000,-998,1,52.0484,-4.4017,-10.4028,-16.8389,166.0057,0.000,0.000,1.000,0.0000,0.0000,0.0000,0.0000,0.0000,0.0000,0
2026-04-17,14:49:14,13713,1,-7.9840,-0.3856,0.0320,0.9425,10.2601,0,1.0000,-998,1,52.1917,6.6439,-10.5637,-7.3584,166.3912,0.000,0.000,1.000,0.0000,0.0000,0.0000,0.0000,0.0000,0.0000,0
2026-04-17,14:49:14,13749,1,-7.9840,-0.6403,0.0426,1.2530,10.2640,0,1.0000,-998,1,52.1085,-7.1775,-10.4443,0.8268,167.0052,0.000,0.000,1.000,0.0000,0.0000,0.0000,0.0000,0.0000,0.0000,0
2026-04-17,14:49:14,13784,1,-7.9840,-0.6838,0.0310,0.9114,10.2690,0,1.0000,-998,1,52.0726,1.6396,-10.0677,7.9197,167.5178,0.000,0.000,1.000,0.0000,0.0000,0.0000,0.0000,0.0000,0.0000,0
2026-04-17,14:49:14,13819,1,-7.9840,-0.2820,0.0227,0.6683,10.2729,0,1.0000,-998,1,52.2769,4.0206,-9.9664,4.7352,167.7841,0.000,0.000,1.000,0.0000,0.0000,0.0000,0.0000,0.0000,0.0000,0
2026-04-17,14:49:14,13855,1,-7.9840,-0.2423,0.0313,0.9202,10.2755,0,1.0000,-998,1,51.9895,-7.0244,-10.0863,-0.8998,167.5925,0.000,0.000,0.998,0.0000,0.0000,0.0000,0.0000,0.0000,0.0000,0
2026-04-17,14:49:14,13890,1,-7.9840,-0.3146,0.0137,0.4028,10.2782,0,1.0000,-998,1,52.2170,7.4419,-10.2161,-1.6869,167.5438,0.000,0.000,0.995,0.0000,0.0000,0.0000,0.0000,0.0000,0.0000,0
2026-04-17,14:49:14,13926,1,-7.9840,-0.0707,0.0312,0.9186,10.2798,0,1.0000,-998,1,52.3299,0.9814,-10.4008,-3.7120,167.1944,0.000,0.000,0.992,0.0000,0.0000,0.0000,0.0000,0.0000,0.0000,0
2026-04-17,14:49:14,13962,1,-7.9840,-0.4084,0.0467,1.3746,10.2822,0,1.0000,-998,1,52.1122,-3.0751,-10.8154,-8.6312,166.8179,0.000,0.000,0.989,0.0000,0.0000,0.0000,0.0000,0.0000,0.0000,0
2026-04-17,14:49:14,13997,1,-7.9840,-0.4407,0.0288,0.8466,10.2848,0,1.0000,-998,1,52.4458,5.3909,-11.3192,-11.4433,166.3945,0.000,0.000,0.986,0.0000,0.0000,0.0000,0.0000,0.0000,0.0000,0
2026-04-17,14:49:14,14032,1,-7.9840,-0.4479,0.0393,1.1558,10.2874,0,1.0000,-998,1,52.3050,-4.9979,-11.7732,-11.9293,166.1517,0.000,0.000,0.982,0.0000,0.0000,0.0000,0.0000,0.0000,0.0000,0
2026-04-17,14:49:14,14068,1,-7.9840,-0.5612,0.0372,1.0951,10.2910,0,1.0000,-998,1,52.4837,5.3717,-12.1083,-8.0858,166.0151,0.000,0.000,0.979,0.0000,0.0000,0.0000,0.0000,0.0000,0.0000,0
2026-04-17,14:49:14,14103,1,-7.9840,-0.8005,0.0441,1.2962,10.2966,0,1.0000,-998,1,52.3821,-3.3712,-12.1311,-1.2947,166.4765,0.000,0.000,0.994,0.0000,0.0000,0.0000,0.0000,0.0000,0.0000,0
2026-04-17,14:49:14,14139,1,-7.9840,-0.7295,0.0243,0.7138,10.3028,0,1.0000,-998,1,52.5519,6.6975,-11.8630,6.0609,167.1414,0.000,0.000,0.990,0.0000,0.0000,0.0000,0.0000,0.0000,0.0000,0
2026-04-17,14:49:14,14176,1,-7.9840,-0.4734,0.0353,1.0378,10.3069,0,1.0000,-998,1,52.4365,-8.0592,-11.5684,8.4859,167.6578,0.000,0.000,0.987,0.0000,0.0000,0.0000,0.0000,0.0000,0.0000,0
2026-04-17,14:49:14,14211,1,-7.9840,-0.7812,0.0371,1.0920,10.3120,0,1.0000,-998,1,52.2981,0.6980,-11.2905,8.1747,167.9870,0.000,0.000,0.984,0.0000,0.0000,0.0000,0.0000,0.0000,0.0000,0
2026-04-17,14:49:14,14247,1,-7.9840,-0.3843,0.0518,1.5223,10.3163,0,1.0000,-998,1,52.7068,8.8702,-11.2286,4.0841,168.0206,0.000,0.000,0.981,0.0000,0.0000,0.0000,0.0000,0.0000,0.0000,0
2026-04-17,14:49:14,14282,1,-7.9840,-0.2340,0.0414,1.2169,10.3173,0,1.0000,-998,1,52.3114,-13.4301,-11.5698,-5.0746,167.3554,0.000,0.000,0.978,0.0000,0.0000,0.0000,0.0000,0.0000,0.0000,0
2026-04-17,14:49:14,14317,1,-7.9840,-0.4161,0.0311,0.9141,10.3196,0,1.0000,-998,1,52.6529,13.6215,-12.0674,-9.7498,166.7639,0.000,0.000,0.974,0.0000,0.0000,0.0000,0.0000,0.0000,0.0000,0
2026-04-17,14:49:14,14351,1,-7.9840,-0.7269,0.0492,1.4480,10.3228,0,1.0000,-998,1,52.7843,9.5842,-12.7479,-11.9655,165.8645,0.000,0.000,0.973,0.0000,0.0000,0.0000,0.0000,0.0000,0.0000,0
2026-04-17,14:49:14,14387,1,-7.9840,-0.8222,0.0605,1.7799,10.3310,0,1.0000,-998,1,52.7415,2.0860,-12.7870,-2.1509,165.9968,0.000,0.000,0.970,0.0000,0.0000,0.0000,0.0000,0.0000,0.0000,0
2026-04-17,14:49:14,14423,1,-7.9840,-0.9474,0.0485,1.4271,10.3375,0,1.0000,-998,1,52.6318,-6.2122,-12.4195,8.4054,166.8873,0.000,0.000,0.966,0.0000,0.0000,0.0000,0.0000,0.0000,0.0000,0
2026-04-17,14:49:14,14459,1,-7.9840,-0.8054,0.0212,0.6231,10.3447,0,1.0000,-998,1,52.5714,1.3469,-11.7596,17.0925,167.5482,0.000,0.000,0.963,0.0000,0.0000,0.0000,0.0000,0.0000,0.0000,0
2026-04-17,14:49:14,14495,1,-7.9840,-0.1586,0.0080,0.2344,10.3470,0,1.0000,-998,1,52.8472,3.2605,-11.0731,19.4997,168.1456,0.000,0.000,0.960,0.0000,0.0000,0.0000,0.0000,0.0000,0.0000,0
2026-04-17,14:49:14,14530,1,-7.9840,-0.0963,0.0215,0.6318,10.3478,0,1.0000,-998,1,52.3507,-13.9847,-10.6935,14.4291,168.4984,0.000,0.000,0.957,0.0000,0.0000,0.0000,0.0000,0.0000,0.0000,0
2026-04-17,14:49:14,14566,1,-7.9840,-0.0285,0.0201,0.5900,10.3485,0,1.0000,-998,1,52.8023,16.2212,-10.3593,12.1057,168.7813,0.000,0.000,0.954,0.0000,0.0000,0.0000,0.0000,0.0000,0.0000,0
2026-04-17,14:49:15,14602,1,-7.9840,-0.2005,0.0277,0.8151,10.3495,0,1.0000,-998,1,52.5389,-11.2461,-10.0554,10.9888,168.4393,0.000,0.000,0.986,0.0000,0.0000,0.0000,0.0000,0.0000,0.0000,0
2026-04-17,14:49:15,14638,1,-7.9840,-0.5419,0.0570,1.6754,10.3527,0,1.0000,-998,1,52.5401,4.8119,-10.1128,3.8587,167.2376,0.000,0.000,1.000,0.0000,0.0000,0.0000,0.0000,0.0000,0.0000,0
2026-04-17,14:49:15,14674,1,-7.9840,-0.7066,0.0665,1.9550,10.3573,0,1.0000,-998,1,52.7881,0.1056,-10.5859,-6.4607,166.0029,0.000,0.000,1.000,0.0000,0.0000,0.0000,0.0000,0.0000,0.0000,0
2026-04-17,14:49:15,14709,1,-7.9840,-0.7204,0.0538,1.5837,10.3630,0,1.0000,-998,1,52.6929,0.7868,-11.0220,-6.5201,165.3931,0.000,0.000,1.000,0.0000,0.0000,0.0000,0.0000,0.0000,0.0000,0
2026-04-17,14:49:15,14744,1,-7.9840,-1.0886,0.0558,1.6421,10.3705,0,1.0000,-998,1,52.7413,-2.3453,-10.6121,9.7232,113.3813,0.000,0.000,1.000,0.0000,0.0000,0.0000,0.0000,0.0000,0.0000,0
2026-04-17,14:49:15,14780,1,-7.9840,-1.2066,0.0399,1.1727,10.3798,0,1.0000,-998,1,52.5424,-4.4981,-9.3873,27.7344,109.9243,0.000,0.000,1.000,0.0000,0.0000,0.0000,0.0000,0.0000,0.0000,0
2026-04-17,14:49:15,14816,1,-7.9840,-1.2604,0.0587,1.7253,10.3894,0,1.0000,-998,1,52.6832,6.2201,-8.6183,24.0577,119.0161,0.000,0.000,1.000,0.0000,0.0000,0.0000,0.0000,0.0000,0.0000,0
2026-04-17,14:49:15,14851,1,-7.9840,-1.1939,0.0591,1.7373,10.3985,0,1.0000,-998,1,52.5318,-4.1042,-8.2342,16.3618,126.9513,0.000,0.000,1.000,0.0000,0.0000,0.0000,0.0000,0.0000,0.0000,0
2026-04-17,14:49:15,14887,1,-7.9840,-0.7939,0.0390,1.1477,10.4049,0,1.0000,-998,1,52.5477,-1.2587,-8.0763,8.3702,133.4443,0.000,0.000,1.000,0.0000,0.0000,0.0000,0.0000,0.0000,0.0000,0
2026-04-17,14:49:15,14923,1,-7.9840,-0.5020,0.0480,1.4109,10.4106,0,1.0000,-998,1,52.5663,5.3368,-7.9761,5.3699,139.1977,0.000,0.000,1.000,0.0000,0.0000,0.0000,0.0000,0.0000,0.0000,0
2026-04-17,14:49:15,14958,1,-7.9840,-0.3136,0.0280,0.8235,10.4127,0,1.0000,-998,1,52.6522,-1.1504,-7.7173,7.3635,143.7267,0.000,0.000,1.000,0.0000,0.0000,0.0000,0.0000,0.0000,0.0000,0
2026-04-17,14:49:15,14994,1,-7.9840,-0.8823,0.0601,1.7679,10.4180,0,1.0000,-998,1,52.5561,0.8455,-7.6374,4.7075,147.5694,0.000,0.000,1.000,0.0000,0.0000,0.0000,0.0000,0.0000,0.0000,0
2026-04-17,14:49:15,15029,1,-7.9840,-0.8350,0.0455,1.3397,10.4241,0,1.0000,-998,1,52.7222,1.3999,-7.7113,0.5020,150.3200,0.000,0.000,1.000,0.0000,0.0000,0.0000,0.0000,0.0000,0.0000,0
2026-04-17,14:49:15,15065,1,-7.9840,-1.2479,0.0520,1.5301,10.4324,0,1.0000,-998,1,52.3736,-8.7115,-8.1662,-7.9353,152.5526,0.000,0.000,1.000,0.0000,0.0000,0.0000,0.0000,0.0000,0.0000,0
2026-04-17,14:49:15,15100,1,-7.9840,-1.0078,0.0217,0.6393,10.4412,0,1.0000,-998,1,52.7542,10.2194,-8.5051,-6.9639,154.5381,0.000,0.000,0.997,0.0000,0.0000,0.0000,0.0000,0.0000,0.0000,0
2026-04-17,14:49:15,15136,1,-7.9840,-0.1751,0.0380,1.1175,10.4435,0,1.0000,-998,1,52.8712,7.5328,-8.9446,-8.2233,154.5499,0.000,0.000,0.995,0.0000,0.0000,0.0000,0.0000,0.0000,0.0000,0
2026-04-17,14:49:15,15172,1,-7.9840,-0.6405,0.0526,1.5468,10.4482,0,1.0000,-998,1,52.6719,2.5223,-8.4999,7.6411,157.1604,0.000,0.000,0.992,0.0000,0.0000,0.0000,0.0000,0.0000,0.0000,0
2026-04-17,14:49:15,15207,1,-7.9840,-0.6518,0.0250,0.7354,10.4529,0,1.0000,-998,1,52.8587,0.9159,-8.0296,10.8645,159.6020,0.000,0.000,0.989,0.0000,0.0000,0.0000,0.0000,0.0000,0.0000,0
2026-04-17,14:49:15,15243,1,-7.9840,-0.4559,0.0238,0.6996,10.4568,0,1.0000,-998,1,52.6976,-3.5641,-7.8702,7.4668,161.1665,0.000,0.000,0.986,0.0000,0.0000,0.0000,0.0000,0.0000,0.0000,0
2026-04-17,14:49:15,15279,1,-7.9840,-0.5177,0.0414,1.2191,10.4612,0,1.0000,-998,1,52.6947,2.9591,-7.7138,6.1908,162.4025,0.000,0.000,0.982,0.0000,0.0000,0.0000,0.0000,0.0000,0.0000,0
2026-04-17,14:49:15,15315,1,-7.9840,-0.7276,0.0352,1.0341,10.4662,0,1.0000,-998,1,52.6577,-1.4736,-7.6914,3.6201,163.1404,0.000,0.000,0.979,0.0000,0.0000,0.0000,0.0000,0.0000,0.0000,0
2026-04-17,14:49:15,15350,1,-7.9840,-0.4912,0.0518,1.5226,10.4710,0,1.0000,-998,1,52.9639,9.6162,-7.7466,0.7509,163.4870,0.000,0.000,0.976,0.0000,0.0000,0.0000,0.0000,0.0000,0.0000,0
2026-04-17,14:49:15,15386,1,-7.9840,-0.4720,0.0425,1.2493,10.4747,0,1.0000,-998,1,52.7499,-5.5969,-8.0737,-4.0230,163.8878,0.000,0.000,0.973,0.0000,0.0000,0.0000,0.0000,0.0000,0.0000,0
2026-04-17,14:49:15,15422,1,-7.9840,-0.8344,0.0586,1.7244,10.4806,0,1.0000,-998,1,52.8185,3.8192,-8.1982,-1.6814,164.7316,0.000,0.000,0.970,0.0000,0.0000,0.0000,0.0000,0.0000,0.0000,0
2026-04-17,14:49:15,15457,1,-7.9840,-0.8599,0.0292,0.8603,10.4867,0,1.0000,-998,1,52.8104,-4.8242,-8.0915,3.1344,165.7250,0.000,0.000,0.966,0.0000,0.0000,0.0000,0.0000,0.0000,0.0000,0
2026-04-17,14:49:15,15492,1,-7.9840,-0.6971,0.0451,1.3259,10.4929,0,1.0000,-998,1,52.9471,9.0470,-7.6645,9.5494,166.7907,0.000,0.000,0.963,0.0000,0.0000,0.0000,0.0000,0.0000,0.0000,0
2026-04-17,14:49:15,15528,1,-7.9840,-0.9402,0.0439,1.2903,10.4998,0,1.0000,-998,1,52.8180,-3.8835,-7.3067,10.6322,167.5201,0.000,0.000,0.960,0.0000,0.0000,0.0000,0.0000,0.0000,0.0000,0
2026-04-17,14:49:15,15563,1,-7.9840,-1.5533,0.0837,2.4609,10.5097,0,1.0000,-998,1,52.7780,1.0980,-7.0595,9.4775,167.6664,0.000,0.000,0.957,0.0000,0.0000,0.0000,0.0000,0.0000,0.0000,0
2026-04-17,14:49:16,15599,1,-7.9840,-1.5392,0.0841,2.4737,10.5214,0,1.0000,-998,1,52.8031,-2.7767,-6.9954,5.2335,167.2032,0.000,0.000,0.954,0.0000,0.0000,0.0000,0.0000,0.0000,0.0000,0
2026-04-17,14:49:16,15635,1,-7.9840,-1.5833,0.0572,1.6821,10.5334,0,1.0000,-998,1,52.8101,8.3682,-7.0963,2.4890,167.1187,0.000,0.000,0.959,0.0000,0.0000,0.0000,0.0000,0.0000,0.0000,0
2026-04-17,14:49:16,15670,1,-7.9840,-1.8645,0.0674,1.9815,10.5476,0,1.0000,-998,1,52.8500,-0.7906,-6.7954,8.6548,167.9901,0.000,0.000,0.956,0.0000,0.0000,0.0000,0.0000,0.0000,0.0000,0
2026-04-17,14:49:16,15706,1,-7.9840,-1.8238,0.0625,1.8370,10.5627,0,1.0000,-998,1,52.7068,0.7735,-6.1242,17.9308,168.9135,0.000,0.000,0.953,0.0000,0.0000,0.0000,0.0000,0.0000,0.0000,0
2026-04-17,14:49:16,15742,1,-7.9840,-1.6803,0.0636,1.8693,10.5764,0,1.0000,-998,1,52.8037,-2.9235,-5.3409,21.8000,169.4116,0.000,0.000,0.950,0.0000,0.0000,0.0000,0.0000,0.0000,0.0000,0
2026-04-17,14:49:16,15778,1,-7.9840,-1.3917,0.0639,1.8787,10.5884,0,1.0000,-998,1,52.5810,1.0304,-4.7902,19.2557,169.6593,0.000,0.000,0.955,0.0000,0.0000,0.0000,0.0000,0.0000,0.0000,0
2026-04-17,14:49:16,15814,1,-7.9840,-1.3535,0.0782,2.3013,10.5983,0,1.0000,-998,1,52.9040,4.8642,-3.5992,31.5174,169.9112,0.000,0.000,0.987,0.0000,0.0000,0.0000,0.0000,0.0000,0.0000,0
2026-04-17,14:49:16,15850,1,-7.9840,-0.9938,0.0785,2.3089,10.6066,0,1.0000,-998,1,52.6812,-7.2904,-2.9859,23.7824,169.9093,0.000,0.000,1.000,0.0000,0.0000,0.0000,0.0000,0.0000,0.0000,0
2026-04-17,14:49:16,15887,1,-7.9840,-1.3031,0.0816,2.4000,10.6156,0,1.0000,-998,1,52.6031,1.8898,-2.4474,19.0492,170.1416,0.000,0.000,1.000,0.0000,0.0000,0.0000,0.0000,0.0000,0.0000,0
2026-04-17,14:49:16,15924,1,-7.9840,-1.3296,0.0498,1.4648,10.6252,0,1.0000,-998,1,52.7076,2.1778,-2.6444,11.3906,169.7124,0.000,0.000,1.000,0.0000,0.0000,0.0000,0.0000,0.0000,0.0000,0
2026-04-17,14:49:16,15959,1,-7.9840,-1.5776,0.0692,2.0361,10.6384,0,1.0000,-998,1,52.6263,3.6096,-2.6495,5.6220,169.3025,0.000,0.000,1.000,0.0000,0.0000,0.0000,0.0000,0.0000,0.0000,0
2026-04-17,14:49:16,15994,1,-7.9840,-1.8660,0.0613,1.8017,10.6518,0,1.0000,-998,1,52.6499,-2.2020,-2.6342,3.9361,169.2310,0.000,0.000,1.000,0.0000,0.0000,0.0000,0.0000,0.0000,0.0000,0
2026-04-17,14:49:16,16030,1,-7.9840,-1.5656,0.0776,2.2835,10.6653,0,1.0000,-998,1,52.7925,8.6238,-2.6013,4.1615,169.3492,0.000,0.000,1.000,0.0000,0.0000,0.0000,0.0000,0.0000,0.0000,0
2026-04-17,14:49:16,16066,1,-7.9840,-1.6729,0.0549,1.6135,10.6770,0,1.0000,-998,1,52.5487,-11.2605,-2.0063,14.6866,170.4500,0.000,0.000,1.000,0.0000,0.0000,0.0000,0.0000,0.0000,0.0000,0
2026-04-17,14:49:16,16102,1,-7.9840,-1.8613,0.0608,1.7893,10.6908,0,1.0000,-998,1,52.6448,3.5449,-1.3392,17.8678,170.7303,0.000,0.000,1.000,0.0000,0.0000,0.0000,0.0000,0.0000,0.0000,0
2026-04-17,14:49:16,16137,1,-7.9840,-1.7089,0.0378,1.1131,10.7043,0,1.0000,-998,1,52.3976,-11.3901,-0.8745,15.5838,171.0369,0.000,0.000,1.000,0.0000,0.0000,0.0000,0.0000,0.0000,0.0000,0
2026-04-17,14:49:16,16172,1,-7.9840,-0.8141,0.0267,0.7859,10.7120,0,1.0000,-998,1,52.6613,4.8341,-0.6351,10.5590,171.4581,0.000,0.000,1.000,0.0000,0.0000,0.0000,0.0000,0.0000,0.0000,0
2026-04-17,14:49:16,16208,1,-7.9840,-0.0297,0.0402,1.1812,10.7154,0,1.0000,-998,1,52.6166,3.3220,-0.5822,4.1750,171.6493,0.000,0.000,1.000,0.0000,0.0000,0.0000,0.0000,0.0000,0.0000,0
2026-04-17,14:49:16,16244,1,-7.9840,-0.3378,0.0420,1.2367,10.7171,0,1.0000,-998,1,52.5226,-2.9188,-0.5932,0.9352,171.9469,0.000,0.000,1.000,0.0000,0.0000,0.0000,0.0000,0.0000,0.0000,0
2026-04-17,14:49:16,16280,1,-7.9840,-1.0273,0.0923,2.7144,10.7223,0,1.0000,-998,1,51.7860,-40.5224,-0.9241,-7.0488,171.4375,0.016,0.000,1.000,0.0000,0.0000,0.0000,0.0000,0.0000,0.0000,0
2026-04-17,14:49:16,16316,1,-7.9840,-0.9562,0.1254,3.6888,10.7306,0,1.0000,-998,1,46.9818,-116.8041,-1.9497,-20.8342,170.9298,0.080,0.000,1.000,0.0000,0.0000,0.0000,0.0000,0.0000,0.0000,0
2026-04-17,14:49:16,16351,1,-7.9840,-1.0427,0.1200,3.5287,10.7383,0,1.0000,-998,1,48.8423,94.0005,-2.5008,-14.3657,139.3681,0.144,0.000,1.000,0.0000,0.0000,0.0000,0.0000,0.0000,0.0000,0
2026-04-17,14:49:16,16386,1,-7.9840,-0.9373,0.0631,1.8555,10.7453,0,1.0000,-998,1,50.6058,38.8189,-1.9830,5.9740,106.7520,0.112,0.000,1.000,0.0000,0.0000,0.0000,0.0000,0.0000,0.0000,0
2026-04-17,14:49:16,16422,1,-7.9840,-1.5608,0.0551,1.6192,10.7556,0,1.0000,-998,1,51.8240,57.2294,-1.4830,11.1533,116.4032,0.080,0.000,1.000,0.0000,0.0000,0.0000,0.0000,0.0000,0.0000,0
2026-04-17,14:49:16,16458,1,-7.9840,-1.1145,0.0737,2.1678,10.7659,0,1.0000,-998,1,53.5590,36.6230,-1.2777,7.9216,111.0784,0.048,0.000,1.000,0.0000,0.0000,0.0000,0.0000,0.0000,0.0000,0
2026-04-17,14:49:16,16494,1,-7.9840,-0.5129,0.0510,1.5000,10.7696,0,1.0000,-998,1,54.1530,19.9370,-1.0090,7.7391,120.4028,0.016,0.000,1.000,0.0000,0.0000,0.0000,0.0000,0.0000,0.0000,0
2026-04-17,14:49:16,16529,1,-7.9840,-0.8154,0.0514,1.5124,10.7750,0,1.0000,-998,1,55.4719,33.7330,-0.7532,7.7284,121.0698,0.000,0.000,1.000,0.0000,0.0000,0.0000,0.0000,0.0000,0.0000,0
2026-04-17,14:49:16,16565,1,-7.9840,-1.2915,0.0811,2.3853,10.7836,0,1.0000,-998,1,55.5105,4.8070,-0.5657,6.3695,116.6979,0.000,0.000,1.000,0.0000,0.0000,0.0000,0.0000,0.0000,0.0000,0
2026-04-17,14:49:17,16601,1,-7.9840,-1.3339,0.0847,2.4926,10.7939,0,1.0000,-998,1,56.5855,28.8160,-0.3650,5.4846,125.3683,0.000,0.000,1.000,0.0000,0.0000,0.0000,0.0000,0.0000,0.0000,0
2026-04-17,14:49:17,16636,1,-7.9840,-1.3032,0.0435,1.2803,10.8040,0,1.0000,-998,1,56.3532,1.4895,-0.4030,0.6653,132.8459,0.000,0.000,1.000,0.0000,0.0000,0.0000,0.0000,0.0000,0.0000,0
2026-04-17,14:49:17,16672,1,-7.9840,-0.3023,0.0465,1.3683,10.8104,0,1.0000,-998,1,57.6626,40.9871,-0.3643,0.7889,138.4187,0.000,0.000,1.000,0.0000,0.0000,0.0000,0.0000,0.0000,0.0000,0
2026-04-17,14:49:17,16715,1,-7.9840,-0.6289,0.0283,0.8329,10.8140,0,1.0000,-998,1,57.5801,9.7147,-0.3773,0.1959,141.3384,0.000,0.000,1.000,0.0000,0.0000,0.0000,0.0000,0.0000,0.0000,0
2026-04-17,14:49:17,16750,1,-7.9840,-0.4708,0.0206,0.6047,10.8184,0,1.0000,-998,1,58.6193,29.7040,-0.3255,1.0441,145.8324,0.000,0.000,1.000,0.0000,0.0000,0.0000,0.0000,0.0000,0.0000,0
2026-04-17,14:49:17,16786,1,-7.9840,-0.2296,0.0259,0.7630,10.8208,0,1.0000,-998,1,58.2145,-10.7398,-0.4823,-3.1324,150.4496,0.000,0.000,1.000,0.0000,0.0000,0.0000,0.0000,0.0000,0.0000,0
2026-04-17,14:49:17,16822,1,-7.9840,-0.5665,0.0452,1.3286,10.8239,0,1.0000,-998,1,58.8682,22.0380,-0.2810,3.5300,154.4967,0.000,0.000,1.000,0.0000,0.0000,0.0000,0.0000,0.0000,0.0000,0
2026-04-17,14:49:17,16857,1,-7.9840,-0.8328,0.0677,1.9925,10.8290,0,1.0000,-998,1,58.4673,-18.7086,0.2529,10.4343,111.9400,0.000,0.000,1.000,0.0000,0.0000,0.0000,0.0000,0.0000,0.0000,0
2026-04-17,14:49:17,16892,1,-7.9840,-0.8058,0.0587,1.7264,10.8351,0,1.0000,-998,1,58.5449,10.8203,0.9330,15.3389,110.6592,0.000,0.000,1.000,0.0000,0.0000,0.0000,0.0000,0.0000,0.0000,0
2026-04-17,14:49:17,16928,1,-7.9840,-1.1247,0.0558,1.6407,10.8425,0,1.0000,-998,1,58.3171,-14.6604,1.6016,15.1364,121.7825,0.000,0.000,1.000,0.0000,0.0000,0.0000,0.0000,0.0000,0.0000,0
2026-04-17,14:49:17,16964,1,-7.9840,-1.1209,0.0333,0.9790,10.8517,0,1.0000,-998,1,58.5252,15.4297,1.4444,-1.7401,129.6048,0.000,0.000,1.000,0.0000,0.0000,0.0000,0.0000,0.0000,0.0000,0
2026-04-17,14:49:17,17000,1,-7.9840,-0.6990,0.0512,1.5073,10.8589,0,1.0000,-998,1,58.7565,-1.3485,0.3990,-24.0196,135.7333,0.000,0.000,1.000,0.0000,0.0000,0.0000,0.0000,0.0000,0.0000,0
2026-04-17,14:49:17,17036,1,-7.9840,-0.8673,0.0408,1.1997,10.8651,0,1.0000,-998,1,58.5913,3.9191,-0.8860,-34.1283,141.2487,0.000,0.000,1.000,0.0000,0.0000,0.0000,0.0000,0.0000,0.0000,0
2026-04-17,14:49:17,17071,1,-7.9840,-0.2356,0.0625,1.8372,10.8699,0,1.0000,-998,1,59.1206,11.1088,-1.8416,-30.8803,145.8872,0.000,0.000,1.000,0.0000,0.0000,0.0000,0.0000,0.0000,0.0000,0
2026-04-17,14:49:17,17106,1,-7.9840,-0.0796,0.0249,0.7322,10.8701,0,1.0000,-998,1,58.8191,-6.6208,-2.3623,-21.0001,144.1507,0.000,0.000,1.000,0.0000,0.0000,0.0000,0.0000,0.0000,0.0000,0
2026-04-17,14:49:17,17142,1,-7.9840,-0.5042,0.0389,1.1438,10.8731,0,1.0000,-998,1,59.1954,12.0215,-2.6151,-13.4004,148.9229,0.000,0.000,1.000,0.0000,0.0000,0.0000,0.0000,0.0000,0.0000,0
2026-04-17,14:49:17,17178,1,-7.9840,-0.6964,0.0398,1.1709,10.8778,0,1.0000,-998,1,59.0659,-2.6455,-2.8268,-9.8699,153.2544,0.000,0.000,1.000,0.0000,0.0000,0.0000,0.0000,0.0000,0.0000,0
2026-04-17,14:49:17,17215,1,-7.9840,-0.7120,0.0325,0.9559,10.8834,0,1.0000,-998,1,59.2164,6.0291,-2.7789,-2.8951,157.1938,0.000,0.000,1.000,0.0000,0.0000,0.0000,0.0000,0.0000,0.0000,0
2026-04-17,14:49:17,17250,1,-7.9840,-0.7544,0.0487,1.4332,10.8897,0,1.0000,-998,1,59.0538,-4.0714,-2.5673,0.6806,161.3446,0.000,0.000,1.000,0.0000,0.0000,0.0000,0.0000,0.0000,0.0000,0
2026-04-17,14:49:17,17286,1,-7.9840,-0.8564,0.0478,1.4062,10.8966,0,1.0000,-998,1,59.0382,1.0274,-2.4064,1.1757,164.5928,0.000,0.000,1.000,0.0000,0.0000,0.0000,0.0000,0.0000,0.0000,0
2026-04-17,14:49:17,17322,1,-7.9840,-1.3423,0.0655,1.9265,10.9054,0,1.0000,-998,1,58.7891,-5.8002,-2.3902,-1.5952,167.3339,0.000,0.000,1.000,0.0000,0.0000,0.0000,0.0000,0.0000,0.0000,0
2026-04-17,14:49:17,17357,1,-7.9840,-1.3259,0.0474,1.3930,10.9156,0,1.0000,-998,1,58.8994,3.9737,-2.8435,-12.3578,168.7065,0.000,0.000,1.000,0.0000,0.0000,0.0000,0.0000,0.0000,0.0000,0
2026-04-17,14:49:17,17392,1,-7.9840,-1.3774,0.0374,1.1007,10.9264,0,1.0000,-998,1,58.7748,-0.5977,-3.5946,-21.9689,169.6643,0.000,0.000,1.000,0.0000,0.0000,0.0000,0.0000,0.0000,0.0000,0
2026-04-17,14:49:17,17427,1,-7.9840,-0.7875,0.0674,1.9831,10.9347,0,1.0000,-998,1,59.1288,10.4207,-4.5416,-27.6077,170.0267,0.000,0.000,1.000,0.0000,0.0000,0.0000,0.0000,0.0000,0.0000,0
2026-04-17,14:49:17,17463,1,-7.9840,-0.9197,0.0536,1.5764,10.9411,0,1.0000,-998,1,58.8116,-7.8034,-5.2746,-25.4320,170.6198,0.000,0.000,1.000,0.0000,0.0000,0.0000,0.0000,0.0000,0.0000,0
2026-04-17,14:49:17,17496,1,-7.9840,-0.9012,0.0268,0.7888,10.9451,0,1.0000,-998,1,58.8192,-4.3321,-5.3442,-20.2740,170.9220,0.000,0.000,1.000,0.0000,0.0000,0.0000,0.0000,0.0000,0.0000,0
2026-04-17,14:49:17,17537,1,-7.9840,-0.6495,0.0371,1.0917,10.9542,0,1.0000,-998,1,58.9338,-4.0234,-5.9385,-18.1802,171.8230,0.000,0.000,1.000,0.0000,0.0000,0.0000,0.0000,0.0000,0.0000,0
2026-04-17,14:49:17,17572,1,-7.9840,-0.0397,0.0352,1.0342,10.9570,0,1.0000,-998,1,58.8920,5.1826,-6.3300,-15.1218,172.7241,0.000,0.000,1.000,0.0000,0.0000,0.0000,0.0000,0.0000,0.0000,0
2026-04-17,14:49:18,17608,1,-7.9840,-0.1245,0.0122,0.3592,10.9574,0,1.0000,-998,1,58.9229,-4.6400,-6.5372,-11.5459,173.6687,0.000,0.000,1.000,0.0000,0.0000,0.0000,0.0000,0.0000,0.0000,0
2026-04-17,14:49:18,17645,1,-7.9840,-0.0947,0.0157,0.4623,10.9580,0,1.0000,-998,1,58.9795,7.0267,-6.8602,-12.4474,174.0703,0.000,0.000,1.000,0.0000,0.0000,0.0000,0.0000,0.0000,0.0000,0
2026-04-17,14:49:18,17681,1,-7.9840,-0.1184,0.0231,0.6792,10.9589,0,1.0000,-998,1,59.0542,-3.2843,-7.1872,-12.5657,174.8552,0.000,0.000,1.000,0.0000,0.0000,0.0000,0.0000,0.0000,0.0000,0
2026-04-17,14:49:18,17716,1,-7.9840,-0.2182,0.0380,1.1177,10.9604,0,1.0000,-998,1,58.8145,-0.7504,-7.2450,-6.3949,175.7702,0.000,0.000,1.000,0.0000,0.0000,0.0000,0.0000,0.0000,0.0000,0
2026-04-17,14:49:18,17752,1,-7.9840,-0.1734,0.0263,0.7738,10.9617,0,1.0000,-998,1,58.9512,0.4398,-6.8570,3.5322,176.6754,0.000,0.000,1.000,0.0000,0.0000,0.0000,0.0000,0.0000,0.0000,0
2026-04-17,14:49:18,17788,1,-7.9840,-0.3988,0.0264,0.7773,10.9646,0,1.0000,-998,1,58.6226,-4.9053,-6.5940,3.0708,177.0590,0.000,0.000,1.000,0.0000,0.0000,0.0000,0.0000,0.0000,0.0000,0
2026-04-17,14:49:18,17823,1,-7.9840,-0.4257,0.0342,1.0054,10.9681,0,1.0000,-998,1,59.0172,11.3202,-6.6168,-1.3280,177.0340,0.000,0.000,1.000,0.0000,0.0000,0.0000,0.0000,0.0000,0.0000,0
2026-04-17,14:49:18,17860,1,-7.9840,-0.4963,0.0230,0.6770,10.9725,0,1.0000,-998,1,58.6566,-9.4292,-6.9073,-9.1613,176.9235,0.000,0.000,1.000,0.0000,0.0000,0.0000,0.0000,0.0000,0.0000,0
2026-04-17,14:49:18,17896,1,-7.9840,-0.1958,0.0537,1.5794,10.9755,0,1.0000,-998,1,58.8830,8.9740,-7.2961,-12.4779,176.1070,0.000,0.000,1.000,0.0000,0.0000,0.0000,0.0000,0.0000,0.0000,0
2026-04-17,14:49:18,17932,1,-7.9840,-0.1630,0.0296,0.8711,10.9766,0,1.0000,-998,1,58.7135,-6.9888,-8.0858,-21.5404,175.4834,0.000,0.000,1.000,0.0000,0.0000,0.0000,0.0000,0.0000,0.0000,0
2026-04-17,14:49:18,17967,1,-7.9840,-0.0853,0.0319,0.9388,10.9781,0,1.0000,-998,1,58.9367,11.0125,-8.6970,-19.4696,174.6909,0.000,0.000,1.000,0.0000,0.0000,0.0000,0.0000,0.0000,0.0000,0
2026-04-17,14:49:18,18002,1,-7.9840,-0.2334,0.0212,0.6230,10.9789,0,1.0000,-998,1,59.0023,-2.1761,-9.0014,-12.9527,174.5266,0.000,0.000,1.000,0.0000,0.0000,0.0000,0.0000,0.0000,0.0000,0
2026-04-17,14:49:18,18038,1,-7.9840,-0.2899,0.0305,0.8970,10.9809,0,1.0000,-998,1,58.9415,1.3571,-9.1499,-7.5319,173.7085,0.000,0.000,1.000,0.0000,0.0000,0.0000,0.0000,0.0000,0.0000,0
2026-04-17,14:49:18,18074,1,-7.9840,-0.4266,0.0344,1.0104,10.9834,0,1.0000,-998,1,59.2307,5.0224,-9.3823,-8.1425,173.7818,0.000,0.000,1.000,0.0000,0.0000,0.0000,0.0000,0.0000,0.0000,0
2026-04-17,14:49:18,18109,1,-7.9840,-0.3848,0.0227,0.6672,10.9857,0,1.0000,-998,1,59.7570,16.2433,-9.2553,0.6058,174.0331,0.000,0.000,1.000,0.0000,0.0000,0.0000,0.0000,0.0000,0.0000,0
2026-04-17,14:49:18,18145,1,-7.9840,-0.4227,0.0315,0.9258,10.9883,0,1.0000,-998,1,59.9442,1.1440,-8.6143,11.8445,175.2470,0.000,0.000,1.000,0.0000,0.0000,0.0000,0.0000,0.0000,0.0000,0
2026-04-17,14:49:18,18181,1,-7.9840,-0.7783,0.0440,1.2944,10.9930,0,1.0000,-998,1,59.6624,-11.6454,-7.8070,17.7182,176.6582,0.000,0.000,1.000,0.0000,0.0000,0.0000,0.0000,0.0000,0.0000,0
2026-04-17,14:49:18,18216,1,-7.9840,-1.0426,0.0612,1.8003,11.0001,0,1.0000,-998,1,59.3420,-7.1575,-7.0684,17.6671,177.6045,0.000,0.000,1.000,0.0000,0.0000,0.0000,0.0000,0.0000,0.0000,0
2026-04-17,14:49:18,18252,1,-7.9840,-1.1491,0.0416,1.2234,11.0077,0,1.0000,-998,1,59.1832,-7.5387,-6.8311,8.3619,177.2641,0.016,0.000,1.000,0.0000,0.0000,0.0000,0.0000,0.0000,0.0000,0
2026-04-17,14:49:18,18285,1,-7.9840,-1.0879,0.0531,1.5615,11.0130,0,1.0000,-998,1,59.3263,-2.5009,-6.5126,8.8142,177.3918,0.024,0.000,1.000,0.0000,0.0000,0.0000,0.0000,0.0000,0.0000,0
2026-04-17,14:49:18,18321,1,-7.9840,-1.2595,0.0487,1.4335,11.0235,0,1.0000,-998,1,59.1930,-7.3278,-7.1710,-10.3299,176.2414,0.000,0.000,1.000,0.0000,0.0000,0.0000,0.0000,0.0000,0.0000,0
2026-04-17,14:49:18,18357,1,-7.9840,-1.1836,0.0642,1.8886,11.0328,0,1.0000,-998,1,59.3692,5.7829,-7.4449,-8.8767,175.2340,0.000,0.000,1.000,0.0000,0.0000,0.0000,0.0000,0.0000,0.0000,0
2026-04-17,14:49:18,18392,1,-7.9840,-1.5019,0.0638,1.8769,11.0426,0,1.0000,-998,1,59.6606,3.2122,-7.4772,-4.0478,175.1619,0.000,0.000,1.000,0.0000,0.0000,0.0000,0.0000,0.0000,0.0000,0
2026-04-17,14:49:18,18427,1,-7.9840,-1.6423,0.0545,1.6016,11.0543,0,1.0000,-998,1,59.8389,-2.9744,-7.2539,2.0105,175.2630,0.000,0.000,0.999,0.0000,0.0000,0.0000,0.0000,0.0000,0.0000,0
2026-04-17,14:49:18,18463,1,-7.9840,-1.6791,0.0528,1.5529,11.0674,0,1.0000,-998,1,59.4424,-13.9399,-6.9497,5.6635,175.2623,0.000,0.000,0.998,0.0000,0.0000,0.0000,0.0000,0.0000,0.0000,0
2026-04-17,14:49:18,18498,1,-7.9840,-1.6099,0.0530,1.5591,11.0806,0,1.0000,-998,1,58.9742,-15.0134,-6.8042,2.8122,174.7819,0.064,0.000,0.995,0.0000,0.0000,0.0000,0.0000,0.0000,0.0000,0
2026-04-17,14:49:18,18533,1,-7.9840,-1.6444,0.0842,2.4753,11.0939,0,1.0000,-998,1,58.5248,-15.8506,-6.7787,0.4611,174.3147,0.128,0.000,1.000,0.0000,0.0000,0.0000,0.0000,0.0000,0.0000,0
2026-04-17,14:49:18,18569,1,-7.9840,-1.8389,0.0772,2.2715,11.1065,0,1.0000,-998,1,57.9574,-24.4515,-6.7476,-0.2614,174.0767,0.192,0.000,1.000,0.0000,0.0000,0.0000,0.0000,0.0000,0.0000,0
2026-04-17,14:49:19,18604,1,-7.9840,-2.0397,0.0730,2.1476,11.1205,0,1.0000,-998,1,57.3537,-20.7018,-6.6142,1.4689,174.3765,0.256,0.000,1.000,0.0000,0.0000,0.0000,0.0000,0.0000,0.0000,0
2026-04-17,14:49:19,18639,1,-7.9840,-2.1912,0.0695,2.0430,11.1359,0,1.0000,-998,1,56.8311,-20.1613,-6.4408,1.9368,174.5414,0.320,0.000,1.000,0.0000,0.0000,0.0000,0.0000,0.0000,0.0000,0
2026-04-17,14:49:19,18675,1,-7.9840,-2.4084,0.0944,2.7777,11.1539,0,1.0000,-998,1,56.2080,-24.7789,-6.4111,-1.0327,174.4639,0.384,0.000,1.000,0.0000,0.0000,0.0000,0.0000,0.0000,0.0000,0
2026-04-17,14:49:19,18710,1,-7.9840,-2.3472,0.0725,2.1337,11.1706,0,1.0000,-998,1,55.6489,-20.1768,-6.5322,-4.6085,173.9180,0.448,0.000,1.000,0.0000,0.0000,0.0000,0.0000,0.0000,0.0000,0
2026-04-17,14:49:19,18747,1,-7.9840,-2.1774,0.0940,2.7655,11.1890,0,1.0000,-998,1,55.2675,-13.7969,-6.7266,-6.8294,173.7565,0.512,0.000,1.000,0.0000,0.0000,0.0000,0.0000,0.0000,0.0000,0
2026-04-17,14:49:19,18782,1,-7.9840,-2.2168,0.0781,2.2964,11.2063,0,1.0000,-998,1,54.7728,-16.5523,-6.7022,-1.8877,173.8689,0.576,0.000,1.000,0.0000,0.0000,0.0000,0.0000,0.0000,0.0000,0
2026-04-17,14:49:19,18818,1,-7.9840,-2.5835,0.0888,2.6108,11.2258,0,1.0000,-998,1,54.5269,-11.6643,-6.1983,6.7827,174.1432,0.640,0.000,1.000,0.0000,0.0000,0.0000,0.0000,0.0000,0.0000,0
2026-04-17,14:49:19,18854,1,-7.9840,-2.6517,0.0944,2.7755,11.2456,0,1.0000,-998,1,54.0235,-21.6126,-5.9254,5.9078,173.8766,0.704,0.000,1.000,0.0000,0.0000,0.0000,0.0000,0.0000,0.0000,0
2026-04-17,14:49:19,18889,1,-7.9840,-2.3651,0.0674,1.9823,11.2633,0,1.0000,-998,1,53.0284,-38.8567,-5.6908,5.2215,173.3700,0.768,0.000,1.000,0.0000,0.0000,0.0000,0.0000,0.0000,0.0000,0
2026-04-17,14:49:19,18924,1,-7.9840,-1.9083,0.0860,2.5300,11.2803,0,1.0000,-998,1,52.0167,-31.1836,-5.5741,3.4990,173.0647,0.832,0.000,1.000,0.0000,0.0000,0.0000,0.0000,0.0000,0.0000,0
2026-04-17,14:49:19,18960,1,-7.9840,-2.0005,0.0730,2.1470,11.2954,0,1.0000,-998,1,50.8118,-36.9563,-5.3770,4.7589,173.2892,0.896,0.000,1.000,0.0000,0.0000,0.0000,0.0000,0.0000,0.0000,0
2026-04-17,14:49:19,18996,1,-7.9840,-2.4487,0.0873,2.5668,11.3140,0,1.0000,-998,1,49.9672,-28.8551,-4.6965,14.0318,173.6781,0.960,0.000,1.000,0.0000,0.0000,0.0000,0.0000,0.0000,0.0000,0
2026-04-17,14:49:19,19031,1,-7.9840,-2.6064,0.0728,2.1412,11.3330,0,1.0000,-998,1,48.8879,-34.4475,-4.0615,15.4686,173.5746,1.000,0.000,1.000,0.0000,0.0000,0.0000,0.0000,0.0000,0.0000,0
2026-04-17,14:49:19,19070,1,-7.9840,-2.6022,0.0835,2.4559,11.3524,0,1.0000,-998,1,48.8491,-15.9466,-3.5004,15.0893,173.7408,1.000,0.000,1.000,0.0000,0.0000,0.0000,0.0000,0.0000,0.0000,0
2026-04-17,14:49:19,19105,1,-7.9840,-2.5311,0.0866,2.5473,11.3741,0,1.0000,-998,1,47.9799,-23.1381,-3.6248,1.4012,173.3751,1.000,0.000,1.000,0.0000,0.0000,0.0000,0.0000,0.0000,0.0000,0
2026-04-17,14:49:19,19140,1,-7.9840,-2.6540,0.0652,1.9183,11.3933,0,1.0000,-998,1,47.1387,-29.1155,-3.6962,-1.5057,173.1855,1.000,0.000,1.000,0.0000,0.0000,0.0000,0.0000,0.0000,0.0000,0
2026-04-17,14:49:19,19177,1,-7.9840,-2.0554,0.0728,2.1406,11.4098,0,1.0000,-998,1,46.3849,-30.4507,-3.5758,0.9777,172.9982,1.000,0.000,1.000,0.0000,0.0000,0.0000,0.0000,0.0000,0.0000,0
2026-04-17,14:49:19,19212,1,-7.9840,-2.1114,0.0914,2.6868,11.4259,0,1.0000,-998,1,45.9257,-14.5641,-3.4114,2.3608,172.7727,1.000,0.000,1.000,0.0000,0.0000,0.0000,0.0000,0.0000,0.0000,0
2026-04-17,14:49:19,19247,1,-7.9840,-1.8423,0.0621,1.8262,11.4392,0,1.0000,-998,1,45.1633,-32.4818,-3.1396,5.7885,172.5172,1.000,0.000,1.000,0.0000,0.0000,0.0000,0.0000,0.0000,0.0000,0
2026-04-17,14:49:19,19283,1,-7.9840,-2.2461,0.0799,2.3511,11.4553,0,1.0000,-998,1,44.4957,-18.8471,-2.8090,8.1068,172.5128,1.000,0.000,1.000,0.0000,0.0000,0.0000,0.0000,0.0000,0.0000,0
2026-04-17,14:49:19,19318,1,-7.9840,-2.3772,0.0842,2.4759,11.4724,0,1.0000,-998,1,43.8816,-25.0555,-2.4172,9.3506,172.6204,1.000,0.000,1.000,0.0000,0.0000,0.0000,0.0000,0.0000,0.0000,0
2026-04-17,14:49:19,19353,1,-7.9840,-2.5177,0.0970,2.8525,11.4907,0,1.0000,-998,1,42.9862,-26.5909,-1.9329,12.0549,172.7048,1.000,0.000,1.000,0.0000,0.0000,0.0000,0.0000,0.0000,0.0000,0
2026-04-17,14:49:19,19389,1,-7.9840,-2.2567,0.0668,1.9649,11.5085,0,1.0000,-998,1,42.6663,-14.0817,-1.6548,7.9047,172.2263,1.000,0.000,1.000,0.0000,0.0000,0.0000,0.0000,0.0000,0.0000,0
2026-04-17,14:49:19,19424,1,-7.9840,-1.6158,0.0718,2.1116,11.5239,0,1.0000,-998,1,42.3176,-6.3885,-1.7597,-0.4335,171.6435,1.000,0.000,1.000,0.0000,0.0000,0.0000,0.0000,0.0000,0.0000,0
2026-04-17,14:49:19,19460,1,-7.9840,-1.8976,0.0675,1.9864,11.5377,0,1.0000,-998,1,41.8881,-14.9822,-2.0866,-6.9009,171.2199,1.000,0.000,1.000,0.0000,0.0000,0.0000,0.0000,0.0000,0.0000,0
2026-04-17,14:49:19,19496,1,-7.9840,-2.0950,0.0691,2.0335,11.5536,0,1.0000,-998,1,41.4906,-11.5394,-2.2758,-5.8803,171.1883,1.000,0.000,1.000,0.0000,0.0000,0.0000,0.0000,0.0000,0.0000,0
2026-04-17,14:49:19,19532,1,-7.9840,-1.4988,0.0639,1.8802,11.5684,0,1.0000,-998,1,41.6028,5.0510,-2.2694,-2.2746,171.2768,1.000,0.000,1.000,0.0000,0.0000,0.0000,0.0000,0.0000,0.0000,0
2026-04-17,14:49:19,19568,1,-7.9840,-1.8526,0.0844,2.4834,11.5816,0,1.0000,-998,1,41.0549,-15.6433,-2.1063,0.7167,171.5525,1.000,0.000,1.000,0.0000,0.0000,0.0000,0.0000,0.0000,0.0000,0
2026-04-17,14:49:20,19604,1,-7.9840,-2.0055,0.0866,2.5460,11.5962,0,1.0000,-998,1,40.9059,-6.4813,-2.1101,-1.2645,171.3876,1.000,0.000,1.000,0.0000,0.0000,0.0000,0.0000,0.0000,0.0000,0
2026-04-17,14:49:20,19639,1,-7.9840,-2.2881,0.0842,2.4765,11.6115,0,1.0000,-998,1,40.4100,-16.8520,-2.1417,-1.5923,171.2770,1.000,0.000,1.000,0.0000,0.0000,0.0000,0.0000,0.0000,0.0000,0
2026-04-17,14:49:20,19675,1,-7.9840,-2.3219,0.0686,2.0183,11.6290,0,1.0000,-998,1,40.2884,-3.6251,-1.9652,2.5912,171.0197,1.000,0.000,1.000,0.0000,0.0000,0.0000,0.0000,0.0000,0.0000,0
2026-04-17,14:49:20,19711,1,-7.9840,-1.7404,0.0756,2.2240,11.6447,0,1.0000,-998,1,40.2135,-0.4893,-1.7547,4.5181,170.9506,1.000,0.000,1.000,0.0000,0.0000,0.0000,0.0000,0.0000,0.0000,0
2026-04-17,14:49:20,19746,1,-7.9840,-1.4413,0.0610,1.7948,11.6563,0,1.0000,-998,1,39.9206,-8.2780,-1.5212,6.2799,170.8169,1.000,0.000,1.000,0.0000,0.0000,0.0000,0.0000,0.0000,0.0000,0
2026-04-17,14:49:20,19781,1,-7.9840,-0.6639,0.0688,2.0247,11.6642,0,1.0000,-998,1,39.9519,7.2884,-1.2553,7.0807,170.7165,0.992,0.000,1.000,0.0000,0.0000,0.0000,0.0000,0.0000,0.0000,0
2026-04-17,14:49:20,19817,1,-7.9840,-0.4682,0.0371,1.0916,11.6672,0,1.0000,-998,1,40.1933,4.6635,-0.9973,7.5307,170.6402,0.960,0.000,1.000,0.0000,0.0000,0.0000,0.0000,0.0000,0.0000,0
2026-04-17,14:49:20,19855,1,-7.9840,-0.7721,0.0583,1.7150,11.6733,0,1.0000,-998,1,40.0918,0.4175,-0.6881,7.7182,170.7825,0.936,0.000,1.000,0.0000,0.0000,0.0000,0.0000,0.0000,0.0000,0
2026-04-17,14:49:20,19891,1,-7.9840,-0.9302,0.0399,1.1725,11.6802,0,1.0000,-998,1,39.9500,-5.5653,-0.4860,5.8972,170.7466,0.904,0.000,1.000,0.0000,0.0000,0.0000,0.0000,0.0000,0.0000,0
2026-04-17,14:49:20,19927,1,-7.9840,-0.9587,0.0285,0.8395,11.6881,0,1.0000,-998,1,39.6773,-6.9424,-0.3638,3.7511,170.8654,0.872,0.000,1.000,0.0000,0.0000,0.0000,0.0000,0.0000,0.0000,0
2026-04-17,14:49:20,19962,1,-7.9840,-0.1552,0.0304,0.8954,11.6921,0,1.0000,-998,1,39.7000,1.2790,-0.1636,5.1611,170.7095,0.840,0.000,1.000,0.0000,0.0000,0.0000,0.0000,0.0000,0.0000,0
2026-04-17,14:49:20,19998,1,-7.9840,-0.4637,0.0257,0.7544,11.6949,0,1.0000,-998,1,39.2342,-11.4412,0.0460,5.4527,170.4932,0.832,0.000,1.000,0.0000,0.0000,0.0000,0.0000,0.0000,0.0000,0
2026-04-17,14:49:20,20034,1,-7.9840,-0.6612,0.0365,1.0742,11.6994,0,1.0000,-998,1,39.3989,6.8147,0.1765,4.5543,170.2138,0.848,0.000,1.000,0.0000,0.0000,0.0000,0.0000,0.0000,0.0000,0
2026-04-17,14:49:20,20069,1,-7.9840,-0.7629,0.0297,0.8727,11.7050,0,1.0000,-998,1,39.3772,-5.6559,0.2794,3.5513,170.1900,0.816,0.000,1.000,0.0000,0.0000,0.0000,0.0000,0.0000,0.0000,0
2026-04-17,14:49:20,20106,1,-7.9840,-0.8384,0.0474,1.3949,11.7109,0,1.0000,-998,1,39.0567,-5.3864,0.3385,2.1131,170.0083,0.784,0.000,1.000,0.0000,0.0000,0.0000,0.0000,0.0000,0.0000,0
2026-04-17,14:49:20,20141,1,-7.9840,-1.0101,0.0471,1.3843,11.7183,0,1.0000,-998,1,39.1826,1.3776,0.3708,1.6947,170.0164,0.752,0.000,1.000,0.0000,0.0000,0.0000,0.0000,0.0000,0.0000,0
2026-04-17,14:49:20,20177,1,-7.9840,-0.6893,0.0767,2.2562,11.7254,0,1.0000,-998,1,38.9462,-1.6402,0.4151,1.2796,169.8699,0.720,0.000,1.000,0.0000,0.0000,0.0000,0.0000,0.0000,0.0000,0
2026-04-17,14:49:20,20213,1,-7.9840,-0.4675,0.0514,1.5114,11.7283,0,1.0000,-998,1,38.9142,-5.9495,0.3378,-1.1014,169.7715,0.688,0.000,1.000,0.0000,0.0000,0.0000,0.0000,0.0000,0.0000,0
2026-04-17,14:49:20,20248,1,-7.9840,-0.6209,0.0392,1.1535,11.7329,0,1.0000,-998,1,38.7562,-0.1685,0.3645,0.1020,169.7256,0.656,0.000,1.000,0.0000,0.0000,0.0000,0.0000,0.0000,0.0000,0
2026-04-17,14:49:20,20283,1,-7.9840,-0.3032,0.0412,1.2125,11.7372,0,1.0000,-998,1,39.0817,10.6195,0.3362,-0.3707,169.5912,0.624,0.000,1.000,0.0000,0.0000,0.0000,0.0000,0.0000,0.0000,0
2026-04-17,14:49:20,20319,1,-7.9840,-0.2582,0.0340,0.9986,11.7387,0,1.0000,-998,1,38.7647,-14.3425,0.2651,-2.1558,169.5744,0.592,0.000,1.000,0.0000,0.0000,0.0000,0.0000,0.0000,0.0000,0
2026-04-17,14:49:20,20355,1,-7.9840,-0.4219,0.0313,0.9205,11.7410,0,1.0000,-998,1,38.7254,3.0742,0.0752,-4.2467,169.4966,0.560,0.000,1.000,0.0000,0.0000,0.0000,0.0000,0.0000,0.0000,0
2026-04-17,14:49:20,20391,1,-7.9840,-0.4997,0.0277,0.8142,11.7445,0,1.0000,-998,1,39.0079,6.7669,0.0175,-3.0526,169.5050,0.528,0.000,0.997,0.0000,0.0000,0.0000,0.0000,0.0000,0.0000,0
2026-04-17,14:49:20,20426,1,-7.9840,-0.3535,0.0585,1.7203,11.7466,0,1.0000,-998,1,38.9522,-4.6884,-0.2252,-6.3051,169.4101,0.496,0.000,0.994,0.0000,0.0000,0.0000,0.0000,0.0000,0.0000,0
2026-04-17,14:49:20,20461,1,-7.9840,-0.5644,0.0652,1.9170,11.7497,0,1.0000,-998,1,38.9719,3.4807,-0.4309,-6.2845,169.4502,0.464,0.000,0.990,0.0000,0.0000,0.0000,0.0000,0.0000,0.0000,0
2026-04-17,14:49:20,20496,1,-7.9840,-0.9574,0.0882,2.5933,11.7552,0,1.0000,-998,1,38.8385,-8.5466,-0.6624,-7.5159,169.4040,0.432,0.000,1.000,0.0000,0.0000,0.0000,0.0000,0.0000,0.0000,0
2026-04-17,14:49:20,20532,1,-7.9840,-1.0641,0.1044,3.0709,11.7629,0,1.0000,-998,1,38.7270,-1.0742,-0.7789,-4.4072,169.3688,0.400,0.000,1.000,0.0000,0.0000,0.0000,0.0000,0.0000,0.0000,0
2026-04-17,14:49:20,20567,1,-7.9840,-1.1422,0.0835,2.4547,11.7708,0,1.0000,-998,1,38.6236,-10.2515,-0.9879,-6.3518,169.2136,0.368,0.000,1.000,0.0000,0.0000,0.0000,0.0000,0.0000,0.0000,0
2026-04-17,14:49:21,20602,1,-7.9840,-1.2464,0.0579,1.7041,11.7802,0,1.0000,-998,1,38.4550,-0.3168,-1.2681,-7.3887,169.2272,0.384,0.000,1.000,0.0000,0.0000,0.0000,0.0000,0.0000,0.0000,0
2026-04-17,14:49:21,20636,1,-7.9840,-1.4127,0.0341,1.0038,11.7865,0,1.0000,-998,1,38.5279,0.7737,-1.2960,-5.9459,169.2229,0.368,0.000,1.000,0.0000,0.0000,0.0000,0.0000,0.0000,0.0000,0
2026-04-17,14:49:21,20671,1,-7.9840,-0.8164,0.0412,1.2127,11.7967,0,1.0000,-998,1,38.7462,5.4850,-1.4063,-4.5383,169.1863,0.336,0.000,1.000,0.0000,0.0000,0.0000,0.0000,0.0000,0.0000,0
2026-04-17,14:49:21,20708,1,-7.9840,-1.2553,0.0672,1.9765,11.8054,0,1.0000,-998,1,38.6823,3.4814,-1.4635,-2.9618,169.2978,0.304,0.000,1.000,0.0000,0.0000,0.0000,0.0000,0.0000,0.0000,0
2026-04-17,14:49:21,20743,1,-7.9840,-1.3812,0.0795,2.3392,11.8156,0,1.0000,-998,1,38.7660,-3.6377,-1.5425,-3.0001,169.3254,0.272,0.000,1.000,0.0000,0.0000,0.0000,0.0000,0.0000,0.0000,0
2026-04-17,14:49:21,20778,1,-7.9840,-1.6351,0.0972,2.8575,11.8277,0,1.0000,-998,1,38.4040,-1.5148,-1.5662,-1.4122,169.4989,0.240,0.000,1.000,0.0000,0.0000,0.0000,0.0000,0.0000,0.0000,0
2026-04-17,14:49:21,20814,1,-7.9840,-1.7061,0.0737,2.1671,11.8404,0,1.0000,-998,1,38.4959,-4.8063,-1.4689,1.2932,169.4006,0.208,0.000,1.000,0.0000,0.0000,0.0000,0.0000,0.0000,0.0000,0
2026-04-17,14:49:21,20850,1,-7.9840,-1.6373,0.0925,2.7191,11.8534,0,1.0000,-998,1,38.5398,8.0201,-1.3323,3.4499,169.3850,0.176,0.000,1.000,0.0000,0.0000,0.0000,0.0000,0.0000,0.0000,0
2026-04-17,14:49:21,20886,1,-7.9840,-1.4296,0.0582,1.7106,11.8635,0,1.0000,-998,1,38.7522,-2.8044,-1.1069,5.8108,169.3076,0.144,0.000,1.000,0.0000,0.0000,0.0000,0.0000,0.0000,0.0000,0
2026-04-17,14:49:21,20922,1,-7.9840,-1.5698,0.0431,1.2685,11.8762,0,1.0000,-998,1,38.4176,-4.3259,-1.2703,-2.8347,169.4200,0.112,0.000,1.000,0.0000,0.0000,0.0000,0.0000,0.0000,0.0000,0
2026-04-17,14:49:21,20958,1,-7.9840,-1.2966,0.0670,1.9709,11.8879,0,1.0000,-998,1,39.0616,16.3235,-1.2848,-0.6281,169.2968,0.080,0.000,0.998,0.0000,0.0000,0.0000,0.0000,0.0000,0.0000,0
2026-04-17,14:49:21,20993,1,-7.9840,-1.7492,0.0806,2.3693,11.8992,0,1.0000,-998,1,38.4012,-21.2005,-1.1095,3.5165,169.3859,0.048,0.000,0.995,0.0000,0.0000,0.0000,0.0000,0.0000,0.0000,0
2026-04-17,14:49:21,21029,1,-7.9840,-2.0270,0.0916,2.6933,11.9137,0,1.0000,-998,1,38.6528,7.0860,-0.8690,6.3320,169.4378,0.016,0.000,0.992,0.0000,0.0000,0.0000,0.0000,0.0000,0.0000,0
2026-04-17,14:49:21,21064,1,-7.9840,-2.0223,0.0736,2.1644,11.9281,0,1.0000,-998,1,38.4300,-10.1388,-0.6257,6.8217,169.3514,0.000,0.000,0.989,0.0000,0.0000,0.0000,0.0000,0.0000,0.0000,0
2026-04-17,14:49:21,21099,1,-7.9840,-2.1452,0.0746,2.1940,11.9439,0,1.0000,-998,1,38.4848,5.5394,-0.3870,7.3273,169.4371,0.000,0.000,0.986,0.0000,0.0000,0.0000,0.0000,0.0000,0.0000,0
2026-04-17,14:49:21,21136,1,-7.9840,-1.6420,0.0526,1.5459,11.9568,0,1.0000,-998,1,38.6080,-5.2233,-0.2768,4.3982,169.3113,0.000,0.000,0.982,0.0000,0.0000,0.0000,0.0000,0.0000,0.0000,0
