Date,Time,Timestamp_ms,Kite_ID,Commanded_Vel_rps,Actual_Vel_rps,Torque_Nm,Tension_N,Line_Length_m,Target_Enabled,Target_Length_m,Remote_Joy,Remote_Active,Pitch_deg,Pitch_Vel_dps,Yaw_deg,Yaw_Vel_dps,Roll_deg,Dive_Conf,AWW_Conf,AF_Conf,Kite_Pitch_deg,Kite_Roll_deg,Kite_Yaw_deg,Kite_Gyro_X,Kite_Gyro_Y,Kite_Gyro_Z,Kite_IMU_Battery
2026-04-17,14:52:21,0,1,0.0000,-0.0545,0.0722,2.1242,15.0130,1,15.0068,0,0,58.9738,3.2911,-9.3019,-3.3114,169.1272,0.000,0.000,0.536,0.0000,0.0000,0.0000,0.0000,0.0000,0.0000,0
2026-04-17,14:52:21,1,1,0.0000,-0.0141,0.0743,2.1865,15.0132,1,15.0068,0,0,59.1669,4.1348,-9.5163,-5.0622,168.7235,0.000,0.000,0.568,0.0000,0.0000,0.0000,0.0000,0.0000,0.0000,0
2026-04-17,14:52:21,2,1,0.0000,-0.0082,0.0756,2.2225,15.0133,1,15.0068,0,0,58.3504,-25.5998,-9.8255,-7.4567,168.3569,0.000,0.000,0.600,0.0000,0.0000,0.0000,0.0000,0.0000,0.0000,0
2026-04-17,14:52:21,3,1,0.0000,-0.0043,0.0752,2.2126,15.0133,1,15.0068,0,0,57.7499,-12.1887,-10.0761,-6.7432,168.3483,0.064,0.000,0.632,0.0000,0.0000,0.0000,0.0000,0.0000,0.0000,0
2026-04-17,14:52:21,4,1,0.0000,0.0067,0.0724,2.1284,15.0133,1,15.0068,0,0,58.4410,14.3583,-9.9652,0.1370,168.9428,0.080,0.000,0.664,0.0000,0.0000,0.0000,0.0000,0.0000,0.0000,0
2026-04-17,14:52:21,5,1,0.0000,0.0389,0.0701,2.0631,15.0131,1,15.0068,0,0,58.9719,15.5333,-9.7246,4.2562,169.3327,0.048,0.000,0.670,0.0000,0.0000,0.0000,0.0000,0.0000,0.0000,0
2026-04-17,14:52:21,5,1,0.0000,-0.0006,0.0700,2.0584,15.0130,1,15.0068,0,0,59.5755,17.5893,-9.5027,6.1156,169.4410,0.016,0.000,0.666,0.0000,0.0000,0.0000,0.0000,0.0000,0.0000,0
2026-04-17,14:52:21,6,1,0.0000,-0.0077,0.0693,2.0382,15.0130,1,15.0068,0,0,59.8415,9.0935,-9.3485,5.3737,169.7252,0.000,0.000,0.663,0.0000,0.0000,0.0000,0.0000,0.0000,0.0000,0
2026-04-17,14:52:21,7,1,0.0000,-0.0610,0.0775,2.2794,15.0133,1,15.0068,0,0,60.2894,13.6603,-9.2274,4.0111,169.7894,0.000,0.000,0.660,0.0000,0.0000,0.0000,0.0000,0.0000,0.0000,0
2026-04-17,14:52:21,8,1,0.0000,-0.0492,0.0827,2.4326,15.0136,1,15.0068,0,0,59.6575,-24.8801,-9.2276,0.7939,169.9005,0.000,0.000,0.657,0.0000,0.0000,0.0000,0.0000,0.0000,0.0000,0
2026-04-17,14:52:21,8,1,0.0000,-0.0220,0.0893,2.6261,15.0140,1,15.0068,0,0,58.6124,-25.7345,-9.4009,-2.7884,169.7866,0.048,0.000,0.654,0.0000,0.0000,0.0000,0.0000,0.0000,0.0000,0
2026-04-17,14:52:21,9,1,0.0000,0.0369,0.0814,2.3954,15.0138,1,15.0068,0,0,59.7281,44.5253,-9.5018,-2.5081,169.6520,0.088,0.000,0.650,0.0000,0.0000,0.0000,0.0000,0.0000,0.0000,0
2026-04-17,14:52:21,9,1,0.0000,0.1218,0.0660,1.9413,15.0132,1,15.0068,0,0,60.3093,20.2963,-9.6221,-3.0820,169.8183,0.056,0.000,0.647,0.0000,0.0000,0.0000,0.0000,0.0000,0.0000,0
2026-04-17,14:52:21,10,1,0.0000,0.0898,0.0544,1.6001,15.0124,1,15.0068,0,0,60.8581,21.4742,-9.6048,-0.5196,170.0857,0.024,0.000,0.644,0.0000,0.0000,0.0000,0.0000,0.0000,0.0000,0
2026-04-17,14:52:21,11,1,0.0000,0.0245,0.0470,1.3828,15.0119,1,15.0068,0,0,61.7685,29.9057,-9.5849,-0.1284,170.2356,0.000,0.000,0.676,0.0000,0.0000,0.0000,0.0000,0.0000,0.0000,0
2026-04-17,14:52:21,12,1,0.0000,-0.0629,0.0583,1.7136,15.0122,1,15.0068,0,0,62.1667,10.8037,-9.7002,-2.5242,170.1477,0.000,0.000,0.708,0.0000,0.0000,0.0000,0.0000,0.0000,0.0000,0
2026-04-17,14:52:21,13,1,0.0000,-0.0964,0.0759,2.2338,15.0132,1,15.0068,0,0,62.5029,11.7526,-9.9165,-4.9691,169.8141,0.000,0.000,0.748,0.0000,0.0000,0.0000,0.0000,0.0000,0.0000,0
2026-04-17,14:52:21,14,1,0.0000,-0.0633,0.0861,2.5317,15.0137,1,15.0068,0,0,62.7757,6.6444,-10.0492,-4.0349,169.4744,0.000,0.000,0.780,0.0000,0.0000,0.0000,0.0000,0.0000,0.0000,0
2026-04-17,14:52:21,15,1,0.0000,0.0490,0.0789,2.3215,15.0136,1,15.0068,0,0,62.8166,3.9654,-10.1312,-2.9064,169.2299,0.000,0.000,0.812,0.0000,0.0000,0.0000,0.0000,0.0000,0.0000,0
2026-04-17,14:52:21,15,1,0.0000,0.1230,0.0580,1.7070,15.0128,1,15.0068,0,0,63.3678,15.1581,-10.1798,-1.6056,169.5759,0.000,0.000,0.844,0.0000,0.0000,0.0000,0.0000,0.0000,0.0000,0
2026-04-17,14:52:21,16,1,0.0000,0.0420,0.0524,1.5421,15.0121,1,15.0068,0,0,63.4749,3.9029,-9.9897,3.5034,169.9256,0.000,0.000,0.876,0.0000,0.0000,0.0000,0.0000,0.0000,0.0000,0
2026-04-17,14:52:21,16,1,0.0000,-0.0044,0.0537,1.5808,15.0122,1,15.0068,0,0,63.8405,13.7910,-9.9059,2.7700,169.9312,0.000,0.000,0.908,0.0000,0.0000,0.0000,0.0000,0.0000,0.0000,0
2026-04-17,14:52:21,44,1,0.0000,-0.0607,0.0628,1.8473,15.0126,1,15.0068,0,0,63.9312,-1.1978,-9.9232,0.6530,170.2470,0.000,0.000,0.940,0.0000,0.0000,0.0000,0.0000,0.0000,0.0000,0
2026-04-17,14:52:21,45,1,0.0000,-0.0038,0.0641,1.8843,15.0127,1,15.0068,0,0,63.7844,0.4069,-9.8988,0.5661,170.1647,0.000,0.000,0.972,0.0000,0.0000,0.0000,0.0000,0.0000,0.0000,0
2026-04-17,14:52:21,46,1,0.0000,0.0099,0.0619,1.8203,15.0126,1,15.0068,0,0,64.1189,8.0670,-9.9059,0.3783,170.4505,0.000,0.000,1.000,0.0000,0.0000,0.0000,0.0000,0.0000,0.0000,0
2026-04-17,14:52:21,47,1,0.0000,0.0168,0.0574,1.6878,15.0124,1,15.0068,0,0,63.9853,-2.9011,-9.9121,-0.3286,170.5443,0.000,0.000,0.998,0.0000,0.0000,0.0000,0.0000,0.0000,0.0000,0
2026-04-17,14:52:21,49,1,0.0000,0.0226,0.0553,1.6254,15.0123,1,15.0068,0,0,64.2466,8.1606,-10.0455,-2.5823,170.5797,0.000,0.000,0.995,0.0000,0.0000,0.0000,0.0000,0.0000,0.0000,0
2026-04-17,14:52:21,50,1,0.0000,0.0310,0.0521,1.5315,15.0122,1,15.0068,0,0,64.1482,-3.2577,-10.0956,-1.8098,170.7517,0.000,0.000,0.992,0.0000,0.0000,0.0000,0.0000,0.0000,0.0000,0
2026-04-17,14:52:21,50,1,0.0000,0.0407,0.0482,1.4187,15.0120,1,15.0068,0,0,64.3252,6.1988,-10.1307,-1.2683,170.5439,0.000,0.000,0.989,0.0000,0.0000,0.0000,0.0000,0.0000,0.0000,0
2026-04-17,14:52:21,51,1,0.0000,0.0165,0.0453,1.3325,15.0117,1,15.0068,0,0,64.3236,-0.8067,-10.1097,-0.1569,170.8048,0.000,0.000,0.986,0.0000,0.0000,0.0000,0.0000,0.0000,0.0000,0
2026-04-17,14:52:21,51,1,0.0000,0.0254,0.0433,1.2726,15.0116,1,15.0068,0,0,64.3676,1.7606,-10.0941,0.1669,170.6497,0.000,0.000,0.982,0.0000,0.0000,0.0000,0.0000,0.0000,0.0000,0
2026-04-17,14:52:21,52,1,0.0000,0.0131,0.0400,1.1772,15.0115,1,15.0068,0,0,64.4402,1.0989,-10.1012,-0.2448,170.8472,0.000,0.000,0.979,0.0000,0.0000,0.0000,0.0000,0.0000,0.0000,0
2026-04-17,14:52:21,53,1,0.0000,0.0083,0.0416,1.2227,15.0115,1,15.0068,0,0,64.4148,-0.3278,-10.2017,-1.9297,170.6604,0.000,0.000,0.976,0.0000,0.0000,0.0000,0.0000,0.0000,0.0000,0
2026-04-17,14:52:21,54,1,0.0000,-0.0324,0.0451,1.3252,15.0116,1,15.0068,0,0,64.5532,3.7676,-10.3611,-3.8143,170.9124,0.000,0.000,0.973,0.0000,0.0000,0.0000,0.0000,0.0000,0.0000,0
2026-04-17,14:52:21,54,1,0.0000,-0.0379,0.0560,1.6465,15.0121,1,15.0068,0,0,64.5001,-1.9467,-10.5264,-4.1155,170.8625,0.000,0.000,0.970,0.0000,0.0000,0.0000,0.0000,0.0000,0.0000,0
2026-04-17,14:52:21,55,1,0.0000,-0.0083,0.0587,1.7271,15.0124,1,15.0068,0,0,64.5350,1.1743,-10.5611,-1.7473,170.9417,0.000,0.000,0.966,0.0000,0.0000,0.0000,0.0000,0.0000,0.0000,0
2026-04-17,14:52:21,56,1,0.0000,0.0114,0.0565,1.6611,15.0124,1,15.0068,0,0,64.4654,-2.1287,-10.5606,-0.8323,170.8832,0.000,0.000,0.963,0.0000,0.0000,0.0000,0.0000,0.0000,0.0000,0
2026-04-17,14:52:21,57,1,0.0000,-0.0065,0.0583,1.7147,15.0124,1,15.0068,0,0,64.5338,2.5154,-10.6129,-1.2019,171.0017,0.000,0.000,0.960,0.0000,0.0000,0.0000,0.0000,0.0000,0.0000,0
2026-04-17,14:52:21,58,1,0.0000,0.0078,0.0555,1.6326,15.0123,1,15.0068,0,0,64.4885,-1.8219,-10.6170,-0.5845,170.9145,0.000,0.000,0.957,0.0000,0.0000,0.0000,0.0000,0.0000,0.0000,0
2026-04-17,14:52:21,59,1,0.0000,0.0099,0.0523,1.5394,15.0122,1,15.0068,0,0,64.5506,2.6294,-10.6179,-0.3340,170.9720,0.000,0.000,0.954,0.0000,0.0000,0.0000,0.0000,0.0000,0.0000,0
2026-04-17,14:52:21,60,1,0.0000,0.0055,0.0529,1.5549,15.0121,1,15.0068,0,0,64.5511,-0.6991,-10.6514,-0.8378,170.9974,0.000,0.000,0.950,0.0000,0.0000,0.0000,0.0000,0.0000,0.0000,0
2026-04-17,14:52:21,60,1,0.0000,0.0021,0.0529,1.5549,15.0121,1,15.0068,0,0,64.5190,0.3657,-10.7508,-2.1320,171.0705,0.000,0.000,0.947,0.0000,0.0000,0.0000,0.0000,0.0000,0.0000,0
2026-04-17,14:52:21,61,1,0.0000,0.0076,0.0521,1.5317,15.0121,1,15.0068,0,0,64.5228,-0.6405,-10.8239,-1.7786,171.0896,0.000,0.000,0.944,0.0000,0.0000,0.0000,0.0000,0.0000,0.0000,0
2026-04-17,14:52:21,61,1,0.0000,0.0058,0.0528,1.5525,15.0121,1,15.0068,0,0,64.5096,0.4983,-10.7925,-0.2035,171.0497,0.000,0.000,0.941,0.0000,0.0000,0.0000,0.0000,0.0000,0.0000,0
2026-04-17,14:52:21,92,1,0.0000,-0.0079,0.0533,1.5688,15.0120,1,15.0068,0,0,64.5428,-0.0363,-10.7597,0.5186,171.1125,0.000,0.000,0.938,0.0000,0.0000,0.0000,0.0000,0.0000,0.0000,0
2026-04-17,14:52:21,94,1,0.0000,0.0074,0.0504,1.4832,15.0120,1,15.0068,0,0,64.5489,0.8545,-10.6986,1.0881,171.1951,0.000,0.000,0.934,0.0000,0.0000,0.0000,0.0000,0.0000,0.0000,0
2026-04-17,14:52:21,95,1,0.0000,-0.0092,0.0519,1.5269,15.0120,1,15.0068,0,0,64.5359,-0.6630,-10.6311,1.4267,171.1826,0.000,0.000,0.931,0.0000,0.0000,0.0000,0.0000,0.0000,0.0000,0
2026-04-17,14:52:21,96,1,0.0000,0.0121,0.0518,1.5223,15.0120,1,15.0068,0,0,64.5548,0.9572,-10.6331,0.4354,171.1495,0.000,0.000,0.928,0.0000,0.0000,0.0000,0.0000,0.0000,0.0000,0
2026-04-17,14:52:21,97,1,0.0000,-0.0089,0.0517,1.5210,15.0120,1,15.0068,0,0,64.5732,0.5144,-10.6473,-0.0557,171.2036,0.000,0.000,0.925,0.0000,0.0000,0.0000,0.0000,0.0000,0.0000,0
2026-04-17,14:52:21,97,1,0.0000,0.0007,0.0504,1.4832,15.0120,1,15.0068,0,0,64.5561,-0.0847,-10.6228,0.4571,171.1450,0.000,0.000,0.922,0.0000,0.0000,0.0000,0.0000,0.0000,0.0000,0
2026-04-17,14:52:21,98,1,0.0000,0.0078,0.0501,1.4740,15.0120,1,15.0068,0,0,64.5576,-0.5340,-10.5872,0.9005,171.1912,0.000,0.000,0.918,0.0000,0.0000,0.0000,0.0000,0.0000,0.0000,0
2026-04-17,14:52:21,98,1,0.0000,0.0108,0.0487,1.4337,15.0120,1,15.0068,0,0,64.5485,-0.1808,-10.5559,0.5962,171.2109,0.000,0.000,0.915,0.0000,0.0000,0.0000,0.0000,0.0000,0.0000,0
2026-04-17,14:52:21,99,1,0.0000,-0.0000,0.0515,1.5133,15.0120,1,15.0068,0,0,64.5710,0.8437,-10.4683,2.0348,171.2279,0.000,0.000,0.912,0.0000,0.0000,0.0000,0.0000,0.0000,0.0000,0
2026-04-17,14:52:21,100,1,0.0000,-0.0024,0.0497,1.4609,15.0120,1,15.0068,0,0,64.5606,-0.0493,-10.3759,2.2534,171.1967,0.000,0.000,0.909,0.0000,0.0000,0.0000,0.0000,0.0000,0.0000,0
2026-04-17,14:52:21,101,1,0.0000,0.0065,0.0492,1.4472,15.0119,1,15.0068,0,0,64.5472,-0.1055,-10.4345,-0.3902,171.2306,0.000,0.000,0.906,0.0000,0.0000,0.0000,0.0000,0.0000,0.0000,0
2026-04-17,14:52:21,101,1,0.0000,0.0007,0.0477,1.4040,15.0119,1,15.0068,0,0,64.5641,0.0644,-10.4843,-1.2471,171.2557,0.000,0.000,0.902,0.0000,0.0000,0.0000,0.0000,0.0000,0.0000,0
2026-04-17,14:52:21,102,1,0.0000,0.0010,0.0492,1.4472,15.0119,1,15.0068,0,0,64.5621,0.1941,-10.5123,-1.2512,171.2849,0.000,0.000,0.899,0.0000,0.0000,0.0000,0.0000,0.0000,0.0000,0
2026-04-17,14:52:21,103,1,0.0000,0.0061,0.0497,1.4618,15.0119,1,15.0068,0,0,64.5522,-0.0847,-10.5635,-1.4015,171.2744,0.000,0.000,0.896,0.0000,0.0000,0.0000,0.0000,0.0000,0.0000,0
2026-04-17,14:52:21,104,1,0.0000,-0.0009,0.0496,1.4577,15.0119,1,15.0068,0,0,64.5601,0.0290,-10.6113,-1.4660,171.3455,0.000,0.000,0.893,0.0000,0.0000,0.0000,0.0000,0.0000,0.0000,0
2026-04-17,14:52:21,105,1,0.0000,0.0007,0.0482,1.4169,15.0119,1,15.0068,0,0,65.0177,13.9032,-10.5683,0.0853,171.4094,0.000,0.000,0.890,0.0000,0.0000,0.0000,0.0000,0.0000,0.0000,0
2026-04-17,14:52:21,106,1,0.0000,-0.0045,0.0486,1.4283,15.0119,1,15.0068,0,0,65.1098,-1.1855,-10.3756,3.0479,171.6009,0.000,0.000,0.886,0.0000,0.0000,0.0000,0.0000,0.0000,0.0000,0
2026-04-17,14:52:21,107,1,0.0000,0.0060,0.0472,1.3893,15.0119,1,15.0068,0,0,64.9317,-4.6002,-10.1977,4.1061,171.8098,0.000,0.000,0.883,0.0000,0.0000,0.0000,0.0000,0.0000,0.0000,0
2026-04-17,14:52:21,107,1,0.0000,-0.0072,0.0493,1.4495,15.0119,1,15.0068,0,0,64.7416,-5.3544,-10.0020,4.2149,171.9296,0.000,0.000,0.880,0.0000,0.0000,0.0000,0.0000,0.0000,0.0000,0
2026-04-17,14:52:21,108,1,-1.9410,-0.5061,0.0461,1.3564,14.5348,1,15.0068,0,0,41.0576,-12.6836,-11.3317,0.0249,167.9023,0.184,0.000,1.000,0.0000,0.0000,0.0000,0.0000,0.0000,0.0000,0
2026-04-17,14:52:21,109,1,-0.0210,0.1248,0.0288,0.8461,14.6194,1,15.0068,0,0,62.4689,10.1003,-5.8320,-0.1938,171.7281,0.000,0.000,0.946,0.0000,0.0000,0.0000,0.0000,0.0000,0.0000,0
2026-04-17,14:52:21,109,1,-0.1410,0.0023,0.0193,0.5682,14.6190,1,15.0068,0,0,62.7837,9.5677,-5.9096,-1.4469,171.4622,0.000,0.000,0.943,0.0000,0.0000,0.0000,0.0000,0.0000,0.0000,0
2026-04-17,14:52:21,140,1,-0.2610,-0.0401,0.0140,0.4116,14.6193,1,15.0068,0,0,63.1352,10.2889,-5.9542,-1.4486,171.1370,0.000,0.000,0.950,0.0000,0.0000,0.0000,0.0000,0.0000,0.0000,0
2026-04-17,14:52:21,158,1,0.1474,0.0138,0.0209,0.6134,14.6194,1,15.0068,0,0,63.3524,10.3760,-6.0216,-2.6706,170.9580,0.000,0.000,0.974,0.0000,0.0000,0.0000,0.0000,0.0000,0.0000,0
2026-04-17,14:52:21,194,1,0.1548,0.1233,0.0302,0.8875,14.6189,1,15.0068,0,0,63.7901,14.6745,-6.1181,-2.6805,170.5688,0.000,0.000,1.000,0.0000,0.0000,0.0000,0.0000,0.0000,0.0000,0
2026-04-17,14:52:21,229,1,-0.0052,0.0817,0.0293,0.8618,14.6179,1,15.0068,0,0,64.1049,8.9072,-6.1263,-1.2557,170.2654,0.000,0.000,1.000,0.0000,0.0000,0.0000,0.0000,0.0000,0.0000,0
2026-04-17,14:52:22,266,1,-0.1652,-0.0105,0.0179,0.5255,14.6177,1,15.0068,0,0,64.3812,10.1102,-6.0668,0.7634,169.9852,0.000,0.000,1.000,0.0000,0.0000,0.0000,0.0000,0.0000,0.0000,0
2026-04-17,14:52:22,302,1,0.1316,-0.0016,0.0129,0.3801,14.6178,1,15.0068,0,0,64.6585,7.5390,-6.0579,0.2941,169.7314,0.000,0.000,1.000,0.0000,0.0000,0.0000,0.0000,0.0000,0.0000,0
2026-04-17,14:52:22,337,1,0.1948,0.1374,0.0238,0.6990,14.6172,1,15.0068,0,0,64.8074,5.2256,-6.0702,-0.2085,169.5706,0.000,0.000,1.000,0.0000,0.0000,0.0000,0.0000,0.0000,0.0000,0
2026-04-17,14:52:22,372,1,0.2022,0.1907,0.0287,0.8433,14.6159,1,15.0068,0,0,65.0288,6.3890,-6.0310,0.9966,169.3992,0.000,0.000,1.000,0.0000,0.0000,0.0000,0.0000,0.0000,0.0000,0
2026-04-17,14:52:22,408,1,0.0422,0.0828,0.0404,1.1890,14.6151,1,15.0068,0,0,65.1057,2.8886,-5.8632,3.9776,169.3334,0.000,0.000,1.000,0.0000,0.0000,0.0000,0.0000,0.0000,0.0000,0
2026-04-17,14:52:22,444,1,-0.1178,-0.0072,0.0328,0.9637,14.6147,1,15.0068,0,0,65.3020,6.1900,-5.7459,3.5200,169.1918,0.000,0.000,1.000,0.0000,0.0000,0.0000,0.0000,0.0000,0.0000,0
2026-04-17,14:52:22,480,1,-0.2778,-0.0883,0.0175,0.5149,14.6150,1,15.0068,0,0,65.3774,1.3000,-5.7343,1.2505,169.1973,0.000,0.000,1.000,0.0000,0.0000,0.0000,0.0000,0.0000,0.0000,0
2026-04-17,14:52:22,516,1,-0.4378,-0.0208,0.0143,0.4194,14.6156,1,15.0068,0,0,65.4725,4.0142,-5.6032,3.5202,168.9884,0.000,0.000,1.000,0.0000,0.0000,0.0000,0.0000,0.0000,0.0000,0
2026-04-17,14:52:22,552,1,0.1316,-0.0027,0.0135,0.3974,14.6157,1,15.0068,0,0,65.5716,2.4797,-5.4112,4.8892,168.9885,0.000,0.000,1.000,0.0000,0.0000,0.0000,0.0000,0.0000,0.0000,0
2026-04-17,14:52:22,588,1,0.1948,0.0676,0.0305,0.8984,14.6153,1,15.0068,0,0,65.6243,2.8767,-5.2706,4.6533,168.8491,0.000,0.000,1.000,0.0000,0.0000,0.0000,0.0000,0.0000,0.0000,0
2026-04-17,14:52:22,625,1,0.0348,0.0914,0.0363,1.0673,14.6145,1,15.0068,0,0,65.7171,1.8492,-5.1480,3.8663,168.8530,0.000,0.000,1.000,0.0000,0.0000,0.0000,0.0000,0.0000,0.0000,0
2026-04-17,14:52:22,660,1,-0.1252,0.0104,0.0296,0.8716,14.6142,1,15.0068,0,0,65.6929,-0.2282,-5.1803,0.3664,168.7945,0.000,0.000,0.998,0.0000,0.0000,0.0000,0.0000,0.0000,0.0000,0
2026-04-17,14:52:22,696,1,-0.2852,-0.0818,0.0116,0.3418,14.6145,1,15.0068,0,0,65.8006,2.7799,-5.2973,-2.3319,168.8105,0.000,0.000,0.995,0.0000,0.0000,0.0000,0.0000,0.0000,0.0000,0
2026-04-17,14:52:22,732,1,-0.4452,-0.0614,0.0099,0.2904,14.6149,1,15.0068,0,0,65.7885,-0.5623,-5.3608,-2.0514,168.7984,0.000,0.000,0.992,0.0000,0.0000,0.0000,0.0000,0.0000,0.0000,0
2026-04-17,14:52:22,768,1,0.1158,-0.0522,0.0105,0.3101,14.6151,1,15.0068,0,0,65.8490,2.5338,-5.4323,-2.4414,168.7848,0.000,0.000,0.989,0.0000,0.0000,0.0000,0.0000,0.0000,0.0000,0
2026-04-17,14:52:22,803,1,0.1790,0.0631,0.0261,0.7690,14.6150,1,15.0068,0,0,65.8914,0.4810,-5.5748,-4.0069,168.7201,0.000,0.000,0.986,0.0000,0.0000,0.0000,0.0000,0.0000,0.0000,0
2026-04-17,14:52:22,839,1,0.1306,0.2335,0.0264,0.7751,14.6137,1,15.0068,0,0,65.8740,0.4238,-5.7211,-4.3897,168.6986,0.000,0.000,0.982,0.0000,0.0000,0.0000,0.0000,0.0000,0.0000,0
2026-04-17,14:52:22,874,1,-0.0294,0.0428,0.0223,0.6560,14.6127,1,15.0068,0,0,65.9184,0.8899,-5.8826,-5.1573,168.7339,0.000,0.000,0.979,0.0000,0.0000,0.0000,0.0000,0.0000,0.0000,0
2026-04-17,14:52:22,915,1,-0.1494,-0.0187,0.0135,0.3978,14.6127,1,15.0068,0,0,66.6180,12.8439,-5.8627,-3.5590,168.6787,0.000,0.000,0.977,0.0000,0.0000,0.0000,0.0000,0.0000,0.0000,0
2026-04-17,14:52:22,951,1,0.1158,0.0055,0.0134,0.3935,14.6128,1,15.0068,0,0,66.4707,-11.0774,-5.9750,-4.0118,168.7537,0.000,0.000,0.974,0.0000,0.0000,0.0000,0.0000,0.0000,0.0000,0
2026-04-17,14:52:22,986,1,0.1790,0.0403,0.0302,0.8872,14.6126,1,15.0068,0,0,66.1383,-6.8180,-6.1869,-5.9745,168.7389,0.000,0.000,0.970,0.0000,0.0000,0.0000,0.0000,0.0000,0.0000,0
2026-04-17,14:52:22,1022,1,0.0190,0.1458,0.0248,0.7305,14.6116,1,15.0068,0,0,66.0600,-4.8273,-6.3079,-4.3493,168.7187,0.000,0.000,0.967,0.0000,0.0000,0.0000,0.0000,0.0000,0.0000,0
2026-04-17,14:52:22,1057,1,-0.1410,0.0412,0.0106,0.3105,14.6110,1,15.0068,0,0,65.6910,-9.8852,-6.3545,-2.5110,168.7473,0.000,0.000,0.964,0.0000,0.0000,0.0000,0.0000,0.0000,0.0000,0
2026-04-17,14:52:22,1092,1,0.1158,0.0066,0.0128,0.3764,14.6110,1,15.0068,0,0,65.7573,1.4303,-6.3394,-0.3850,168.7312,0.000,0.000,0.961,0.0000,0.0000,0.0000,0.0000,0.0000,0.0000,0
2026-04-17,14:52:22,1128,1,0.1790,0.1013,0.0212,0.6226,14.6105,1,15.0068,0,0,65.5141,-8.8880,-6.2386,1.8334,168.7491,0.000,0.000,0.958,0.0000,0.0000,0.0000,0.0000,0.0000,0.0000,0
2026-04-17,14:52:22,1163,1,0.2422,0.2412,0.0227,0.6668,14.6093,1,15.0068,0,0,65.4558,-0.1095,-6.1323,2.8627,168.7644,0.000,0.000,0.954,0.0000,0.0000,0.0000,0.0000,0.0000,0.0000,0
2026-04-17,14:52:22,1199,1,0.3054,0.1654,0.0278,0.8166,14.6074,1,15.0068,0,0,65.3856,-4.5656,-6.0039,3.6947,168.7626,0.000,0.000,0.951,0.0000,0.0000,0.0000,0.0000,0.0000,0.0000,0
2026-04-17,14:52:22,1235,1,0.3686,0.4952,0.0090,0.2657,14.6046,1,15.0068,0,0,65.2636,-1.4620,-5.9371,2.3457,168.7357,0.000,0.000,0.948,0.0000,0.0000,0.0000,0.0000,0.0000,0.0000,0
2026-04-17,14:52:23,1271,1,0.4318,0.1241,0.0373,1.0960,14.6022,1,15.0068,0,0,65.2662,-1.2024,-5.8822,2.0301,168.7854,0.000,0.000,0.945,0.0000,0.0000,0.0000,0.0000,0.0000,0.0000,0
2026-04-17,14:52:23,1307,1,0.2718,0.3068,0.0318,0.9349,14.5993,1,15.0068,0,0,65.1429,-2.9168,-5.8612,0.9890,168.7042,0.000,0.000,0.942,0.0000,0.0000,0.0000,0.0000,0.0000,0.0000,0
2026-04-17,14:52:23,1343,1,0.1118,0.1817,0.0268,0.7880,14.5972,1,15.0068,0,0,65.1778,0.6332,-5.9152,-0.7110,168.7834,0.000,0.000,0.938,0.0000,0.0000,0.0000,0.0000,0.0000,0.0000,0
2026-04-17,14:52:23,1378,1,-0.0482,0.0809,0.0224,0.6577,14.5964,1,15.0068,0,0,65.0764,-3.3379,-5.8704,0.8729,168.7669,0.000,0.000,0.935,0.0000,0.0000,0.0000,0.0000,0.0000,0.0000,0
2026-04-17,14:52:23,1413,1,-0.2082,-0.0481,0.0102,0.2999,14.5965,1,15.0068,0,0,65.0785,0.2457,-5.7460,2.8235,168.7539,0.000,0.000,0.932,0.0000,0.0000,0.0000,0.0000,0.0000,0.0000,0
2026-04-17,14:52:23,1449,1,0.1158,-0.0637,0.0134,0.3949,14.5967,1,15.0068,0,0,65.0412,-1.9659,-5.6517,2.7551,168.8021,0.000,0.000,0.929,0.0000,0.0000,0.0000,0.0000,0.0000,0.0000,0
2026-04-17,14:52:23,1484,1,0.1790,0.0565,0.0294,0.8649,14.5965,1,15.0068,0,0,64.9970,-0.3496,-5.5754,2.5767,168.7010,0.000,0.000,0.926,0.0000,0.0000,0.0000,0.0000,0.0000,0.0000,0
2026-04-17,14:52:23,1520,1,0.0190,0.1480,0.0264,0.7775,14.5956,1,15.0068,0,0,65.0012,-0.4098,-5.4953,2.0992,168.8125,0.000,0.000,0.922,0.0000,0.0000,0.0000,0.0000,0.0000,0.0000,0
2026-04-17,14:52:23,1556,1,-0.1410,-0.0004,0.0200,0.5877,14.5954,1,15.0068,0,0,64.9190,-1.9266,-5.6204,-2.1798,168.6906,0.000,0.000,0.919,0.0000,0.0000,0.0000,0.0000,0.0000,0.0000,0
2026-04-17,14:52:23,1592,1,-0.3010,0.0071,0.0167,0.4918,14.5955,1,15.0068,0,0,64.9565,0.4158,-5.7836,-4.1884,168.7593,0.000,0.000,0.916,0.0000,0.0000,0.0000,0.0000,0.0000,0.0000,0
2026-04-17,14:52:23,1627,1,0.1474,0.0362,0.0198,0.5835,14.5955,1,15.0068,0,0,64.9018,-1.7387,-5.9212,-4.1833,168.7082,0.000,0.000,0.913,0.0000,0.0000,0.0000,0.0000,0.0000,0.0000,0
2026-04-17,14:52:23,1663,1,0.0990,0.0825,0.0344,1.0127,14.5951,1,15.0068,0,0,64.9141,0.5089,-6.0439,-4.1736,168.7417,0.000,0.000,0.910,0.0000,0.0000,0.0000,0.0000,0.0000,0.0000,0
2026-04-17,14:52:23,1703,1,-0.0210,0.0840,0.0302,0.8896,14.5944,1,15.0068,0,0,64.8959,-0.3661,-6.0990,-3.5793,168.7258,0.000,0.000,0.907,0.0000,0.0000,0.0000,0.0000,0.0000,0.0000,0
2026-04-17,14:52:23,1739,1,-0.1810,-0.0131,0.0184,0.5418,14.5942,1,15.0068,0,0,64.8883,0.2343,-6.2089,-3.6636,168.7894,0.000,0.000,0.904,0.0000,0.0000,0.0000,0.0000,0.0000,0.0000,0
2026-04-17,14:52:23,1774,1,-0.3410,0.0191,0.0151,0.4432,14.5944,1,15.0068,0,0,64.9007,-0.3094,-6.3270,-3.9351,168.7078,0.000,0.000,0.901,0.0000,0.0000,0.0000,0.0000,0.0000,0.0000,0
2026-04-17,14:52:23,1809,1,-0.5010,-0.0314,0.0130,0.3829,14.5946,1,15.0068,0,0,64.8747,-0.3872,-6.4305,-3.3835,168.7617,0.000,0.000,0.898,0.0000,0.0000,0.0000,0.0000,0.0000,0.0000,0
2026-04-17,14:52:23,1845,1,0.1632,0.0357,0.0279,0.8196,14.5947,1,15.0068,0,0,64.8930,0.7443,-6.5241,-3.4719,168.7423,0.000,0.000,0.894,0.0000,0.0000,0.0000,0.0000,0.0000,0.0000,0
2026-04-17,14:52:23,1881,1,0.0032,0.0732,0.0319,0.9378,14.5941,1,15.0068,0,0,64.8609,-0.9505,-6.6129,-2.7998,168.7138,0.000,0.000,0.891,0.0000,0.0000,0.0000,0.0000,0.0000,0.0000,0
2026-04-17,14:52:23,1917,1,-0.1568,-0.0093,0.0202,0.5954,14.5939,1,15.0068,0,0,64.8698,0.5019,-6.6086,-1.0514,168.7444,0.000,0.000,0.888,0.0000,0.0000,0.0000,0.0000,0.0000,0.0000,0
2026-04-17,14:52:23,1953,1,-0.3168,-0.0087,0.0166,0.4883,14.5941,1,15.0068,0,0,64.8783,0.2385,-6.6466,-1.2120,168.7599,0.000,0.000,0.885,0.0000,0.0000,0.0000,0.0000,0.0000,0.0000,0
2026-04-17,14:52:23,1988,1,-0.4768,-0.0041,0.0154,0.4515,14.5942,1,15.0068,0,0,64.8674,0.2537,-6.6747,-1.1359,168.7322,0.000,0.000,0.882,0.0000,0.0000,0.0000,0.0000,0.0000,0.0000,0
2026-04-17,14:52:23,2023,1,0.1632,0.0493,0.0262,0.7701,14.5942,1,15.0068,0,0,64.8846,0.4490,-6.7400,-1.8008,168.7404,0.000,0.000,0.878,0.0000,0.0000,0.0000,0.0000,0.0000,0.0000,0
2026-04-17,14:52:23,2059,1,0.1148,0.2487,0.0236,0.6943,14.5931,1,15.0068,0,0,64.8891,-0.2451,-6.7385,-0.5368,168.7076,0.000,0.000,0.875,0.0000,0.0000,0.0000,0.0000,0.0000,0.0000,0
2026-04-17,14:52:23,2095,1,-0.0452,0.0291,0.0221,0.6503,14.5922,1,15.0068,0,0,64.8777,-0.4523,-6.5606,3.9507,168.6836,0.000,0.000,0.872,0.0000,0.0000,0.0000,0.0000,0.0000,0.0000,0
2026-04-17,14:52:23,2130,1,-0.2052,-0.0437,0.0105,0.3094,14.5923,1,15.0068,0,0,64.9132,1.1525,-6.2827,7.0614,168.6897,0.000,0.000,0.869,0.0000,0.0000,0.0000,0.0000,0.0000,0.0000,0
2026-04-17,14:52:23,2166,1,-0.3652,-0.0409,0.0148,0.4356,14.5925,1,15.0068,0,0,64.8847,-0.8490,-5.9672,8.8939,168.6270,0.000,0.000,0.866,0.0000,0.0000,0.0000,0.0000,0.0000,0.0000,0
2026-04-17,14:52:23,2202,1,0.1316,-0.0296,0.0151,0.4428,14.5926,1,15.0068,0,0,64.9004,0.8841,-5.7189,8.0758,168.6900,0.000,0.000,0.862,0.0000,0.0000,0.0000,0.0000,0.0000,0.0000,0
2026-04-17,14:52:23,2237,1,0.1390,0.0792,0.0324,0.9519,14.5923,1,15.0068,0,0,64.9115,0.2919,-5.5285,6.6166,168.5987,0.000,0.000,0.859,0.0000,0.0000,0.0000,0.0000,0.0000,0.0000,0
2026-04-17,14:52:24,2273,1,-0.0210,0.1314,0.0242,0.7112,14.5913,1,15.0068,0,0,64.8881,-0.2422,-5.4046,4.9507,168.7074,0.000,0.000,0.856,0.0000,0.0000,0.0000,0.0000,0.0000,0.0000,0
2026-04-17,14:52:24,2309,1,-0.1810,-0.0123,0.0131,0.3843,14.5911,1,15.0068,0,0,64.8982,0.3886,-5.2496,4.9664,168.6539,0.000,0.000,0.853,0.0000,0.0000,0.0000,0.0000,0.0000,0.0000,0
2026-04-17,14:52:24,2344,1,0.1316,0.0092,0.0134,0.3939,14.5912,1,15.0068,0,0,64.9156,0.5111,-5.1440,3.4936,168.6874,0.000,0.000,0.850,0.0000,0.0000,0.0000,0.0000,0.0000,0.0000,0
2026-04-17,14:52:24,2380,1,0.1948,0.0905,0.0294,0.8642,14.5908,1,15.0068,0,0,64.8898,-0.4444,-5.1592,0.9929,168.6512,0.000,0.000,0.846,0.0000,0.0000,0.0000,0.0000,0.0000,0.0000,0
2026-04-17,14:52:24,2416,1,0.0348,0.0864,0.0359,1.0556,14.5899,1,15.0068,0,0,64.8656,-0.5732,-5.2103,-0.9577,168.6669,0.000,0.000,0.843,0.0000,0.0000,0.0000,0.0000,0.0000,0.0000,0
2026-04-17,14:52:24,2452,1,-0.1252,0.0128,0.0269,0.7910,14.5896,1,15.0068,0,0,64.8726,0.1685,-5.3394,-3.1609,168.6965,0.000,0.000,0.840,0.0000,0.0000,0.0000,0.0000,0.0000,0.0000,0
2026-04-17,14:52:24,2493,1,-0.2452,-0.0626,0.0074,0.2183,14.5899,1,15.0068,0,0,64.8707,-0.4602,-5.4313,-3.6826,168.7078,0.000,0.000,0.838,0.0000,0.0000,0.0000,0.0000,0.0000,0.0000,0
2026-04-17,14:52:24,2529,1,0.1316,0.0025,0.0114,0.3355,14.5900,1,15.0068,0,0,64.8723,0.2041,-5.6506,-6.1358,168.6966,0.000,0.000,0.834,0.0000,0.0000,0.0000,0.0000,0.0000,0.0000,0
2026-04-17,14:52:24,2565,1,0.1948,0.0864,0.0290,0.8544,14.5896,1,15.0068,0,0,64.8860,0.5672,-5.8575,-6.1277,168.6723,0.000,0.000,0.831,0.0000,0.0000,0.0000,0.0000,0.0000,0.0000,0
2026-04-17,14:52:24,2601,1,0.0348,0.2431,0.0131,0.3849,14.5880,1,15.0068,0,0,64.8594,-0.8385,-6.0718,-6.8261,168.6547,0.000,0.000,0.828,0.0000,0.0000,0.0000,0.0000,0.0000,0.0000,0
2026-04-17,14:52:24,2636,1,0.1474,0.0331,0.0193,0.5663,14.5874,1,15.0068,0,0,64.8767,0.6673,-6.2744,-6.3399,168.7172,0.000,0.000,0.825,0.0000,0.0000,0.0000,0.0000,0.0000,0.0000,0
2026-04-17,14:52:24,2672,1,0.2106,0.1614,0.0153,0.4499,14.5862,1,15.0068,0,0,64.9044,0.1686,-6.2978,-2.5583,168.6388,0.000,0.000,0.822,0.0000,0.0000,0.0000,0.0000,0.0000,0.0000,0
2026-04-17,14:52:24,2707,1,0.2738,0.1371,0.0307,0.9015,14.5851,1,15.0068,0,0,64.8570,-1.7364,-6.2378,0.3676,168.6948,0.000,0.000,0.818,0.0000,0.0000,0.0000,0.0000,0.0000,0.0000,0
2026-04-17,14:52:24,2743,1,0.1138,0.2022,0.0360,1.0588,14.5839,1,15.0068,0,0,64.8883,0.8307,-6.1352,2.1973,168.6752,0.000,0.000,0.815,0.0000,0.0000,0.0000,0.0000,0.0000,0.0000,0
2026-04-17,14:52:24,2779,1,-0.0462,0.1126,0.0206,0.6065,14.5825,1,15.0068,0,0,64.8633,-1.3038,-6.1990,-1.1813,168.7154,0.000,0.000,0.812,0.0000,0.0000,0.0000,0.0000,0.0000,0.0000,0
2026-04-17,14:52:24,2814,1,-0.2062,-0.0399,0.0127,0.3723,14.5826,1,15.0068,0,0,64.8640,0.8605,-6.3725,-3.8027,168.7852,0.000,0.000,0.809,0.0000,0.0000,0.0000,0.0000,0.0000,0.0000,0
2026-04-17,14:52:24,2850,1,-0.3662,0.0007,0.0160,0.4712,14.5827,1,15.0068,0,0,64.9001,0.6380,-6.5164,-4.3997,168.6518,0.000,0.000,0.806,0.0000,0.0000,0.0000,0.0000,0.0000,0.0000,0
2026-04-17,14:52:24,2885,1,-0.5262,0.0104,0.0163,0.4793,14.5829,1,15.0068,0,0,64.8555,-0.7378,-6.7234,-5.8732,168.7097,0.000,0.000,0.802,0.0000,0.0000,0.0000,0.0000,0.0000,0.0000,0
2026-04-17,14:52:24,2920,1,0.1632,0.0448,0.0245,0.7191,14.5829,1,15.0068,0,0,64.8943,1.2207,-6.9045,-6.0573,168.6257,0.000,0.000,0.799,0.0000,0.0000,0.0000,0.0000,0.0000,0.0000,0
2026-04-17,14:52:24,2956,1,0.1148,0.1190,0.0369,1.0843,14.5823,1,15.0068,0,0,64.8629,-0.5679,-7.1009,-6.1607,168.6946,0.000,0.000,0.796,0.0000,0.0000,0.0000,0.0000,0.0000,0.0000,0
2026-04-17,14:52:24,2992,1,-0.0452,0.0780,0.0287,0.8448,14.5814,1,15.0068,0,0,64.8890,0.8692,-7.2948,-6.3383,168.6149,0.000,0.000,0.793,0.0000,0.0000,0.0000,0.0000,0.0000,0.0000,0
2026-04-17,14:52:24,3027,1,-0.2052,-0.0385,0.0178,0.5246,14.5814,1,15.0068,0,0,64.8967,-0.3992,-7.4610,-5.5804,168.7684,0.000,0.000,0.790,0.0000,0.0000,0.0000,0.0000,0.0000,0.0000,0
2026-04-17,14:52:24,3063,1,-0.3652,-0.0121,0.0199,0.5860,14.5819,1,15.0068,0,0,64.8830,0.2035,-7.5281,-3.2260,168.6826,0.000,0.000,0.786,0.0000,0.0000,0.0000,0.0000,0.0000,0.0000,0
2026-04-17,14:52:24,3099,1,-0.5252,-0.0392,0.0217,0.6397,14.5824,1,15.0068,0,0,64.8913,-0.4822,-7.4896,-0.2562,168.8456,0.000,0.000,0.783,0.0000,0.0000,0.0000,0.0000,0.0000,0.0000,0
2026-04-17,14:52:24,3135,1,-0.6852,-0.0328,0.0190,0.5600,14.5828,1,15.0068,0,0,64.8447,-1.1310,-7.4586,0.1472,168.7373,0.000,0.000,0.780,0.0000,0.0000,0.0000,0.0000,0.0000,0.0000,0
2026-04-17,14:52:24,3171,1,-0.8452,-0.0331,0.0174,0.5119,14.5831,1,15.0068,0,0,64.8751,0.8081,-7.4567,0.5616,168.7300,0.000,0.000,0.777,0.0000,0.0000,0.0000,0.0000,0.0000,0.0000,0
2026-04-17,14:52:24,3206,1,0.1474,0.0311,0.0231,0.6798,14.5831,1,15.0068,0,0,64.8437,-0.1712,-7.4309,0.2495,168.7304,0.000,0.000,0.774,0.0000,0.0000,0.0000,0.0000,0.0000,0.0000,0
2026-04-17,14:52:25,3242,1,0.0990,0.1247,0.0328,0.9661,14.5825,1,15.0068,0,0,64.8921,1.4744,-7.4609,-0.2457,168.7286,0.000,0.000,0.770,0.0000,0.0000,0.0000,0.0000,0.0000,0.0000,0
2026-04-17,14:52:25,3277,1,0.0190,0.1137,0.0308,0.9063,14.5820,1,15.0068,0,0,64.8885,0.7851,-7.4256,0.0524,168.7769,0.000,0.000,0.769,0.0000,0.0000,0.0000,0.0000,0.0000,0.0000,0
2026-04-17,14:52:25,3313,1,-0.1410,0.0359,0.0124,0.3655,14.5811,1,15.0068,0,0,64.8930,0.6229,-7.3687,1.2185,168.7090,0.000,0.000,0.766,0.0000,0.0000,0.0000,0.0000,0.0000,0.0000,0
2026-04-17,14:52:25,3349,1,0.1316,0.0492,0.0096,0.2815,14.5810,1,15.0068,0,0,64.9013,0.0227,-7.2870,2.0073,168.7858,0.000,0.000,0.762,0.0000,0.0000,0.0000,0.0000,0.0000,0.0000,0
2026-04-17,14:52:25,3385,1,0.1948,0.1383,0.0133,0.3923,14.5799,1,15.0068,0,0,64.8764,-0.2968,-7.1576,3.4690,168.6588,0.000,0.000,0.759,0.0000,0.0000,0.0000,0.0000,0.0000,0.0000,0
2026-04-17,14:52:25,3420,1,0.2580,0.2355,0.0171,0.5034,14.5788,1,15.0068,0,0,65.3888,16.1715,-6.9256,5.9995,168.7694,0.000,0.000,0.756,0.0000,0.0000,0.0000,0.0000,0.0000,0.0000,0
2026-04-17,14:52:25,3455,1,0.3212,0.2275,0.0146,0.4304,14.5764,1,15.0068,0,0,65.8029,10.7406,-6.7486,5.3670,168.6062,0.000,0.000,0.753,0.0000,0.0000,0.0000,0.0000,0.0000,0.0000,0
2026-04-17,14:52:25,3491,1,0.3844,0.5414,-0.0021,0.0617,14.5732,1,15.0068,0,0,66.1581,7.1224,-6.6038,4.7415,168.7187,0.000,0.000,0.750,0.0000,0.0000,0.0000,0.0000,0.0000,0.0000,0
2026-04-17,14:52:25,3526,1,0.4476,0.1625,0.0343,1.0074,14.5715,1,15.0068,0,0,66.1081,-4.6810,-6.3687,6.2532,168.7764,0.000,0.000,0.746,0.0000,0.0000,0.0000,0.0000,0.0000,0.0000,0
2026-04-17,14:52:25,3562,1,0.5108,0.5221,0.0122,0.3578,14.5676,1,15.0068,0,0,65.6462,-17.9624,-6.3036,2.9597,168.7402,0.000,0.000,0.743,0.0000,0.0000,0.0000,0.0000,0.0000,0.0000,0
2026-04-17,14:52:25,3598,1,0.4624,0.5202,0.0289,0.8507,14.5643,1,15.0068,0,0,65.1668,-14.6494,-6.3839,-0.6797,168.7776,0.048,0.000,0.740,0.0000,0.0000,0.0000,0.0000,0.0000,0.0000,0
2026-04-17,14:52:25,3634,1,0.3024,0.3125,0.0313,0.9196,14.5609,1,15.0068,0,0,64.7568,-13.3750,-6.4155,-0.8462,168.7560,0.040,0.000,0.737,0.0000,0.0000,0.0000,0.0000,0.0000,0.0000,0
2026-04-17,14:52:25,3670,1,0.1424,0.2103,0.0295,0.8672,14.5588,1,15.0068,0,0,64.3455,-12.6526,-6.4231,-0.6438,168.8333,0.104,0.000,0.734,0.0000,0.0000,0.0000,0.0000,0.0000,0.0000,0
2026-04-17,14:52:25,3706,1,-0.0176,0.1195,0.0145,0.4252,14.5572,1,15.0068,0,0,64.0585,-9.4462,-6.5976,-4.5522,168.7769,0.072,0.000,0.730,0.0000,0.0000,0.0000,0.0000,0.0000,0.0000,0
2026-04-17,14:52:25,3742,1,0.1158,-0.0076,0.0083,0.2455,14.5573,1,15.0068,0,0,63.8049,-8.1679,-6.8242,-5.7872,168.9216,0.040,0.000,0.727,0.0000,0.0000,0.0000,0.0000,0.0000,0.0000,0
2026-04-17,14:52:25,3778,1,0.1790,0.0538,0.0280,0.8243,14.5571,1,15.0068,0,0,63.5977,-6.1547,-6.8908,-3.4018,168.9166,0.032,0.000,0.724,0.0000,0.0000,0.0000,0.0000,0.0000,0.0000,0
2026-04-17,14:52:25,3814,1,0.0748,0.1806,0.0274,0.8064,14.5560,1,15.0068,0,0,63.4068,-6.2592,-6.8812,-0.7359,169.0546,0.096,0.000,0.721,0.0000,0.0000,0.0000,0.0000,0.0000,0.0000,0
2026-04-17,14:52:25,3850,1,-0.0852,0.0234,0.0189,0.5550,14.5552,1,15.0068,0,0,63.2138,-6.0469,-6.6378,4.9316,169.0876,0.064,0.000,0.718,0.0000,0.0000,0.0000,0.0000,0.0000,0.0000,0
2026-04-17,14:52:25,3885,1,-0.2452,0.0101,0.0134,0.3949,14.5552,1,15.0068,0,0,63.1226,-2.8854,-6.2872,9.0829,169.0439,0.032,0.000,0.714,0.0000,0.0000,0.0000,0.0000,0.0000,0.0000,0
2026-04-17,14:52:25,3921,1,0.1632,0.0592,0.0230,0.6771,14.5550,1,15.0068,0,0,63.0340,-3.0566,-5.9019,11.0772,169.1102,0.000,0.000,0.711,0.0000,0.0000,0.0000,0.0000,0.0000,0.0000,0
2026-04-17,14:52:25,3957,1,0.1148,0.0977,0.0381,1.1214,14.5544,1,15.0068,0,0,62.9321,-3.1453,-5.5740,10.1550,169.3670,0.000,0.000,0.708,0.0000,0.0000,0.0000,0.0000,0.0000,0.0000,0
2026-04-17,14:52:25,3993,1,-0.0452,0.0135,0.0408,1.2013,14.5541,1,15.0068,0,0,62.8178,-3.5802,-5.2711,9.2083,170.1501,0.000,0.000,0.722,0.0000,0.0000,0.0000,0.0000,0.0000,0.0000,0
2026-04-17,14:52:25,4029,1,-0.2052,-0.0409,0.0287,0.8432,14.5542,1,15.0068,0,0,62.6899,-3.9812,-4.9256,9.1823,170.6621,0.000,0.000,0.754,0.0000,0.0000,0.0000,0.0000,0.0000,0.0000,0
2026-04-17,14:52:25,4071,1,-0.3252,-0.1313,0.0085,0.2502,14.5551,1,15.0068,0,0,62.6029,-3.2154,-4.5784,8.1351,171.1189,0.000,0.000,0.770,0.0000,0.0000,0.0000,0.0000,0.0000,0.0000,0
2026-04-17,14:52:25,4106,1,0.1158,0.0065,0.0128,0.3775,14.5552,1,15.0068,0,0,62.5502,-2.0530,-4.4645,4.3800,171.1500,0.000,0.000,0.802,0.0000,0.0000,0.0000,0.0000,0.0000,0.0000,0
2026-04-17,14:52:25,4142,1,0.1790,0.0580,0.0266,0.7832,14.5550,1,15.0068,0,0,62.4177,-3.9843,-4.3922,2.3344,171.1403,0.000,0.000,0.834,0.0000,0.0000,0.0000,0.0000,0.0000,0.0000,0
2026-04-17,14:52:25,4177,1,0.0748,0.0765,0.0418,1.2300,14.5545,1,15.0068,0,0,62.3839,-0.8248,-4.3062,2.0681,171.0714,0.000,0.000,0.866,0.0000,0.0000,0.0000,0.0000,0.0000,0.0000,0
2026-04-17,14:52:25,4213,1,-0.0852,-0.0029,0.0412,1.2121,14.5543,1,15.0068,0,0,62.3077,-2.3496,-4.2126,2.3085,170.9818,0.000,0.000,0.898,0.0000,0.0000,0.0000,0.0000,0.0000,0.0000,0
2026-04-17,14:52:26,4249,1,-0.2452,-0.0601,0.0249,0.7331,14.5545,1,15.0068,0,0,62.2559,-2.0398,-4.0830,3.0892,170.8392,0.000,0.000,0.930,0.0000,0.0000,0.0000,0.0000,0.0000,0.0000,0
2026-04-17,14:52:26,4284,1,-0.4052,-0.0356,0.0151,0.4433,14.5551,1,15.0068,0,0,62.2455,-0.2158,-3.9035,4.5395,170.9055,0.000,0.000,0.962,0.0000,0.0000,0.0000,0.0000,0.0000,0.0000,0
2026-04-17,14:52:26,4320,1,-0.5652,-0.0108,0.0154,0.4533,14.5551,1,15.0068,0,0,62.1934,-1.9264,-3.5943,7.3855,171.2356,0.000,0.000,0.994,0.0000,0.0000,0.0000,0.0000,0.0000,0.0000,0
2026-04-17,14:52:26,4356,1,-0.7252,-0.0566,0.0151,0.4431,14.5554,1,15.0068,0,0,62.0910,-2.5403,-3.1956,9.6518,171.8414,0.000,0.000,1.000,0.0000,0.0000,0.0000,0.0000,0.0000,0.0000,0
2026-04-17,14:52:26,4393,1,0.1158,-0.0628,0.0099,0.2914,14.5556,1,15.0068,0,0,62.0425,-1.6044,-2.8181,9.9100,172.4441,0.000,0.000,0.999,0.0000,0.0000,0.0000,0.0000,0.0000,0.0000,0
2026-04-17,14:52:26,4428,1,0.1790,0.0272,0.0316,0.9280,14.5555,1,15.0068,0,0,61.9416,-2.9258,-2.3792,10.8418,172.9362,0.000,0.000,1.000,0.0000,0.0000,0.0000,0.0000,0.0000,0.0000,0
2026-04-17,14:52:26,4464,1,0.0190,0.0273,0.0429,1.2627,14.5551,1,15.0068,0,0,61.8571,-2.9802,-1.9854,10.3772,173.3113,0.000,0.000,1.000,0.0000,0.0000,0.0000,0.0000,0.0000,0.0000,0
2026-04-17,14:52:26,4499,1,-0.1410,-0.0107,0.0377,1.1093,14.5551,1,15.0068,0,0,61.7470,-2.9556,-1.5159,12.1088,173.4743,0.000,0.000,1.000,0.0000,0.0000,0.0000,0.0000,0.0000,0.0000,0
2026-04-17,14:52:26,4535,1,-0.3010,-0.0853,0.0163,0.4789,14.5555,1,15.0068,0,0,61.6879,-1.1937,-1.1245,10.7512,173.2301,0.000,0.000,1.000,0.0000,0.0000,0.0000,0.0000,0.0000,0.0000,0
2026-04-17,14:52:26,4571,1,-0.4610,-0.0016,0.0127,0.3747,14.5558,1,15.0068,0,0,61.6955,0.2091,-1.0264,4.5192,172.7004,0.000,0.000,1.000,0.0000,0.0000,0.0000,0.0000,0.0000,0.0000,0
2026-04-17,14:52:26,4607,1,0.1316,-0.0175,0.0175,0.5148,14.5560,1,15.0068,0,0,61.6861,0.3575,-1.0667,0.1517,172.2401,0.000,0.000,1.000,0.0000,0.0000,0.0000,0.0000,0.0000,0.0000,0
2026-04-17,14:52:26,4643,1,0.1390,0.0877,0.0309,0.9081,14.5556,1,15.0068,0,0,61.7093,1.0524,-1.1296,-1.5085,171.8201,0.000,0.000,1.000,0.0000,0.0000,0.0000,0.0000,0.0000,0.0000,0
2026-04-17,14:52:26,4679,1,-0.0210,0.0370,0.0335,0.9849,14.5549,1,15.0068,0,0,61.6942,-0.1983,-1.1029,-0.0723,171.3598,0.000,0.000,1.000,0.0000,0.0000,0.0000,0.0000,0.0000,0.0000,0
2026-04-17,14:52:26,4715,1,-0.1810,-0.0257,0.0258,0.7594,14.5550,1,15.0068,0,0,61.6890,0.1860,-1.0725,0.5599,170.9163,0.000,0.000,1.000,0.0000,0.0000,0.0000,0.0000,0.0000,0.0000,0
2026-04-17,14:52:26,4751,1,-0.3410,-0.0244,0.0185,0.5447,14.5554,1,15.0068,0,0,61.6955,0.8794,-0.9791,2.1134,170.5659,0.000,0.000,1.000,0.0000,0.0000,0.0000,0.0000,0.0000,0.0000,0
2026-04-17,14:52:26,4787,1,-0.5010,0.0038,0.0157,0.4609,14.5554,1,15.0068,0,0,61.6863,-0.0965,-0.8474,3.3944,170.3344,0.000,0.000,0.997,0.0000,0.0000,0.0000,0.0000,0.0000,0.0000,0
2026-04-17,14:52:26,4823,1,0.1316,-0.0192,0.0163,0.4784,14.5555,1,15.0068,0,0,61.7137,1.1572,-0.6914,4.2839,170.1944,0.000,0.000,0.994,0.0000,0.0000,0.0000,0.0000,0.0000,0.0000,0
2026-04-17,14:52:26,4864,1,0.1232,0.0529,0.0379,1.1136,14.5553,1,15.0068,0,0,61.6929,-0.4211,-0.5244,4.4170,170.3288,0.000,0.000,0.991,0.0000,0.0000,0.0000,0.0000,0.0000,0.0000,0
2026-04-17,14:52:26,4900,1,-0.0368,-0.0180,0.0473,1.3911,14.5551,1,15.0068,0,0,61.6438,-1.3617,-0.2940,5.5717,170.4563,0.000,0.000,0.988,0.0000,0.0000,0.0000,0.0000,0.0000,0.0000,0
2026-04-17,14:52:26,4936,1,-0.1968,-0.0393,0.0340,1.0008,14.5552,1,15.0068,0,0,61.6297,-0.4115,-0.0978,5.3386,170.8139,0.000,0.000,0.985,0.0000,0.0000,0.0000,0.0000,0.0000,0.0000,0
2026-04-17,14:52:26,4972,1,-0.3568,-0.1916,0.0188,0.5528,14.5561,1,15.0068,0,0,61.5605,-2.3337,0.1055,5.0267,171.0889,0.000,0.000,0.982,0.0000,0.0000,0.0000,0.0000,0.0000,0.0000,0
2026-04-17,14:52:26,5008,1,-0.5168,-0.1783,0.0140,0.4112,14.5578,1,15.0068,0,0,61.5633,0.0083,0.2334,3.1612,171.3869,0.000,0.000,0.978,0.0000,0.0000,0.0000,0.0000,0.0000,0.0000,0
2026-04-17,14:52:26,5044,1,-0.6768,-0.1082,0.0335,0.9857,14.5591,1,15.0068,0,0,61.5463,0.2560,0.3378,2.3383,171.7210,0.000,0.000,0.975,0.0000,0.0000,0.0000,0.0000,0.0000,0.0000,0
2026-04-17,14:52:26,5079,1,-0.8368,-0.3032,0.0309,0.9092,14.5608,1,15.0068,0,0,61.3984,-4.3101,0.5927,5.2381,171.9265,0.000,0.000,0.972,0.0000,0.0000,0.0000,0.0000,0.0000,0.0000,0
2026-04-17,14:52:26,5114,1,-0.9968,-0.6031,0.0390,1.1479,14.5647,1,15.0068,0,0,61.3643,-0.4617,0.8250,5.5109,171.7538,0.000,0.000,0.969,0.0000,0.0000,0.0000,0.0000,0.0000,0.0000,0
2026-04-17,14:52:26,5150,1,-1.1568,-0.7545,0.0362,1.0653,14.5705,1,15.0068,0,0,61.3492,-1.2983,0.9598,3.9562,171.4057,0.000,0.000,0.966,0.0000,0.0000,0.0000,0.0000,0.0000,0.0000,0
2026-04-17,14:52:26,5185,1,-1.3168,-0.5738,0.0290,0.8544,14.5759,1,15.0068,0,0,61.3902,2.1137,0.9874,1.5499,171.0518,0.000,0.000,0.962,0.0000,0.0000,0.0000,0.0000,0.0000,0.0000,0
2026-04-17,14:52:26,5221,1,-1.4768,-0.5981,0.0267,0.7854,14.5800,1,15.0068,0,0,61.3610,-0.6986,1.4078,8.0274,170.8271,0.000,0.000,0.959,0.0000,0.0000,0.0000,0.0000,0.0000,0.0000,0
2026-04-17,14:52:27,5257,1,-1.6368,-0.5490,0.0344,1.0104,14.5841,1,15.0068,0,0,61.3398,0.0939,1.5427,4.8471,170.5478,0.000,0.000,0.956,0.0000,0.0000,0.0000,0.0000,0.0000,0.0000,0
2026-04-17,14:52:27,5292,1,-1.7968,-0.1648,0.0079,0.2328,14.5865,1,15.0068,0,0,61.4431,4.4641,1.5205,1.0703,170.1880,0.000,0.000,0.953,0.0000,0.0000,0.0000,0.0000,0.0000,0.0000,0
2026-04-17,14:52:27,5328,1,0.1474,0.0476,0.0166,0.4893,14.5864,1,15.0068,0,0,61.3649,-2.4736,1.4678,-0.8057,169.9906,0.000,0.000,0.950,0.0000,0.0000,0.0000,0.0000,0.0000,0.0000,0
2026-04-17,14:52:27,5364,1,0.2106,0.1231,0.0223,0.6560,14.5856,1,15.0068,0,0,61.4159,2.8332,1.5114,0.8019,169.7753,0.000,0.000,0.946,0.0000,0.0000,0.0000,0.0000,0.0000,0.0000,0
2026-04-17,14:52:27,5399,1,0.1622,0.0771,0.0472,1.3887,14.5849,1,15.0068,0,0,61.4945,2.1597,1.6576,3.2833,169.6163,0.000,0.000,0.943,0.0000,0.0000,0.0000,0.0000,0.0000,0.0000,0
2026-04-17,14:52:27,5434,1,0.0022,-0.0165,0.0594,1.7476,14.5848,1,15.0068,0,0,61.4685,-0.5003,1.7797,3.3430,169.7483,0.000,0.000,0.940,0.0000,0.0000,0.0000,0.0000,0.0000,0.0000,0
2026-04-17,14:52:27,5469,1,-0.1578,-0.0254,0.0541,1.5912,14.5850,1,15.0068,0,0,61.3999,-3.7196,1.9299,4.0203,170.1007,0.000,0.000,0.963,0.0000,0.0000,0.0000,0.0000,0.0000,0.0000,0
2026-04-17,14:52:27,5504,1,-0.3178,-0.0798,0.0329,0.9678,14.5855,1,15.0068,0,0,61.2700,-1.9129,2.1768,6.1290,170.5773,0.000,0.000,0.986,0.0000,0.0000,0.0000,0.0000,0.0000,0.0000,0
2026-04-17,14:52:27,5540,1,-0.4778,-0.1389,0.0165,0.4846,14.5865,1,15.0068,0,0,61.3289,2.0271,2.5566,8.7928,170.8350,0.000,0.000,1.000,0.0000,0.0000,0.0000,0.0000,0.0000,0.0000,0
2026-04-17,14:52:27,5575,1,-0.6378,-0.0331,0.0179,0.5260,14.5867,1,15.0068,0,0,61.2409,-3.4003,2.8610,8.4913,171.1803,0.000,0.000,1.000,0.0000,0.0000,0.0000,0.0000,0.0000,0.0000,0
2026-04-17,14:52:27,5611,1,0.1316,0.0052,0.0126,0.3704,14.5868,1,15.0068,0,0,61.1697,-0.7461,3.1549,7.6295,171.5078,0.000,0.000,1.000,0.0000,0.0000,0.0000,0.0000,0.0000,0.0000,0
2026-04-17,14:52:27,5648,1,0.1790,0.0895,0.0277,0.8155,14.5863,1,15.0068,0,0,61.1279,-0.9091,3.4353,7.5241,171.7972,0.000,0.000,1.000,0.0000,0.0000,0.0000,0.0000,0.0000,0.0000,0
2026-04-17,14:52:27,5684,1,0.0748,0.1098,0.0368,1.0832,14.5854,1,15.0068,0,0,61.0786,-0.8814,3.3234,0.1055,171.1031,0.000,0.000,1.000,0.0000,0.0000,0.0000,0.0000,0.0000,0.0000,0
2026-04-17,14:52:27,5720,1,-0.0852,-0.0006,0.0383,1.1252,14.5853,1,15.0068,0,0,61.1312,2.1025,3.2297,-1.8811,170.6228,0.000,0.000,1.000,0.0000,0.0000,0.0000,0.0000,0.0000,0.0000,0
2026-04-17,14:52:27,5755,1,-0.2452,-0.0376,0.0197,0.5807,14.5854,1,15.0068,0,0,61.1133,-0.7640,3.2090,-0.9145,170.3247,0.000,0.000,0.998,0.0000,0.0000,0.0000,0.0000,0.0000,0.0000,0
2026-04-17,14:52:27,5790,1,-0.4052,0.0230,0.0167,0.4903,14.5857,1,15.0068,0,0,61.1777,2.0220,3.2955,1.7194,169.9965,0.000,0.000,0.994,0.0000,0.0000,0.0000,0.0000,0.0000,0.0000,0
2026-04-17,14:52:27,5826,1,0.1474,0.0400,0.0204,0.6008,14.5857,1,15.0068,0,0,61.1178,-1.8576,3.4494,3.5986,169.7856,0.000,0.000,0.991,0.0000,0.0000,0.0000,0.0000,0.0000,0.0000,0
2026-04-17,14:52:27,5862,1,0.1548,0.0746,0.0352,1.0344,14.5853,1,15.0068,0,0,61.1861,3.0693,3.4774,1.6344,169.5610,0.000,0.000,0.988,0.0000,0.0000,0.0000,0.0000,0.0000,0.0000,0
2026-04-17,14:52:27,5898,1,-0.0052,0.0291,0.0435,1.2793,14.5848,1,15.0068,0,0,61.1750,-1.1867,3.5654,2.6224,169.3920,0.000,0.000,0.985,0.0000,0.0000,0.0000,0.0000,0.0000,0.0000,0
2026-04-17,14:52:27,5934,1,-0.1652,-0.0201,0.0339,0.9968,14.5848,1,15.0068,0,0,61.8027,18.7124,3.6924,3.3096,169.2265,0.000,0.000,0.982,0.0000,0.0000,0.0000,0.0000,0.0000,0.0000,0
2026-04-17,14:52:27,5969,1,-0.3252,-0.0967,0.0119,0.3514,14.5852,1,15.0068,0,0,62.0888,5.0565,3.7900,2.9249,169.0803,0.000,0.000,0.978,0.0000,0.0000,0.0000,0.0000,0.0000,0.0000,0
2026-04-17,14:52:27,6004,1,-0.4852,-0.0084,0.0159,0.4682,14.5853,1,15.0068,0,0,62.0616,-3.4769,3.9451,3.8875,169.0436,0.000,0.000,0.975,0.0000,0.0000,0.0000,0.0000,0.0000,0.0000,0
2026-04-17,14:52:27,6039,1,0.1158,0.0107,0.0129,0.3788,14.5853,1,15.0068,0,0,61.8272,-8.0369,4.0159,2.7924,168.8719,0.000,0.000,0.972,0.0000,0.0000,0.0000,0.0000,0.0000,0.0000,0
2026-04-17,14:52:27,6074,1,0.1790,0.0442,0.0283,0.8330,14.5851,1,15.0068,0,0,61.6427,-6.5807,4.0720,2.0977,168.8538,0.000,0.000,0.969,0.0000,0.0000,0.0000,0.0000,0.0000,0.0000,0
2026-04-17,14:52:27,6110,1,0.0190,0.0415,0.0414,1.2162,14.5847,1,15.0068,0,0,61.4670,-6.5850,4.1907,2.9574,168.7786,0.032,0.000,0.966,0.0000,0.0000,0.0000,0.0000,0.0000,0.0000,0
2026-04-17,14:52:27,6146,1,-0.1410,-0.0216,0.0344,1.0116,14.5847,1,15.0068,0,0,61.2706,-6.6534,4.2172,1.3458,168.7955,0.096,0.000,0.962,0.0000,0.0000,0.0000,0.0000,0.0000,0.0000,0
2026-04-17,14:52:27,6182,1,-0.3010,-0.1137,0.0186,0.5462,14.5852,1,15.0068,0,0,61.0498,-8.2953,4.2141,0.3118,168.7466,0.088,0.000,0.959,0.0000,0.0000,0.0000,0.0000,0.0000,0.0000,0
2026-04-17,14:52:27,6218,1,-0.4610,0.0226,0.0157,0.4631,14.5856,1,15.0068,0,0,60.8103,-8.1580,4.2137,-0.0167,168.7162,0.056,0.000,0.956,0.0000,0.0000,0.0000,0.0000,0.0000,0.0000,0
2026-04-17,14:52:28,6254,1,0.1158,-0.0106,0.0109,0.3204,14.5857,1,15.0068,0,0,60.5529,-8.2451,4.2647,1.1723,168.7122,0.024,0.000,0.953,0.0000,0.0000,0.0000,0.0000,0.0000,0.0000,0
2026-04-17,14:52:28,6289,1,0.1790,0.0506,0.0261,0.7663,14.5854,1,15.0068,0,0,60.3568,-6.5082,4.3318,1.4604,168.6248,0.000,0.000,0.950,0.0000,0.0000,0.0000,0.0000,0.0000,0.0000,0
2026-04-17,14:52:28,6325,1,0.0748,0.0897,0.0410,1.2050,14.5848,1,15.0068,0,0,60.2071,-5.4666,4.3937,1.7510,168.6222,0.064,0.000,0.946,0.0000,0.0000,0.0000,0.0000,0.0000,0.0000,0
2026-04-17,14:52:28,6361,1,-0.0852,-0.0060,0.0411,1.2088,14.5846,1,15.0068,0,0,60.0448,-5.3571,4.4584,1.9181,168.5799,0.128,0.000,0.943,0.0000,0.0000,0.0000,0.0000,0.0000,0.0000,0
2026-04-17,14:52:28,6396,1,-0.2452,-0.0512,0.0243,0.7149,14.5848,1,15.0068,0,0,59.9342,-3.8580,4.4525,0.3162,168.6169,0.168,0.000,0.940,0.0000,0.0000,0.0000,0.0000,0.0000,0.0000,0
2026-04-17,14:52:28,6429,1,-0.3252,-0.1026,0.0132,0.3878,14.5853,1,15.0068,0,0,59.9293,-2.2531,4.4618,0.3057,168.6054,0.152,0.000,0.938,0.0000,0.0000,0.0000,0.0000,0.0000,0.0000,0
2026-04-17,14:52:28,6465,1,0.1316,-0.0143,0.0116,0.3398,14.5857,1,15.0068,0,0,59.7735,-4.0744,4.2962,-3.4630,168.5847,0.120,0.000,0.935,0.0000,0.0000,0.0000,0.0000,0.0000,0.0000,0
2026-04-17,14:52:28,6500,1,0.1948,0.0416,0.0327,0.9612,14.5855,1,15.0068,0,0,59.5670,-6.2492,4.2036,-2.9492,168.5847,0.112,0.000,0.932,0.0000,0.0000,0.0000,0.0000,0.0000,0.0000,0
2026-04-17,14:52:28,6536,1,0.0348,0.0259,0.0440,1.2931,14.5850,1,15.0068,0,0,59.4358,-3.6997,4.1270,-2.6789,168.5678,0.152,0.000,0.929,0.0000,0.0000,0.0000,0.0000,0.0000,0.0000,0
2026-04-17,14:52:28,6572,1,-0.1252,-0.0125,0.0398,1.1704,14.5850,1,15.0068,0,0,59.3736,-2.6059,4.1232,-0.8387,168.5739,0.120,0.000,0.926,0.0000,0.0000,0.0000,0.0000,0.0000,0.0000,0
2026-04-17,14:52:28,6608,1,-0.2852,-0.0795,0.0208,0.6129,14.5853,1,15.0068,0,0,59.2436,-4.6193,4.1422,0.0662,168.5669,0.088,0.000,0.922,0.0000,0.0000,0.0000,0.0000,0.0000,0.0000,0
2026-04-17,14:52:28,6643,1,-0.4452,0.0170,0.0182,0.5351,14.5858,1,15.0068,0,0,59.2138,-1.3137,4.2290,1.9065,168.6460,0.056,0.000,0.919,0.0000,0.0000,0.0000,0.0000,0.0000,0.0000,0
2026-04-17,14:52:28,6679,1,-0.6052,-0.0043,0.0156,0.4595,14.5860,1,15.0068,0,0,59.0617,-4.6913,4.3287,2.5583,168.6178,0.024,0.000,0.916,0.0000,0.0000,0.0000,0.0000,0.0000,0.0000,0
2026-04-17,14:52:28,6714,1,0.1632,0.0506,0.0236,0.6932,14.5859,1,15.0068,0,0,59.0593,-0.0387,4.3674,1.3715,168.6013,0.000,0.000,0.913,0.0000,0.0000,0.0000,0.0000,0.0000,0.0000,0
2026-04-17,14:52:28,6749,1,0.1148,0.1007,0.0380,1.1185,14.5854,1,15.0068,0,0,59.0022,-2.2842,4.3148,-0.6596,168.5566,0.000,0.000,0.910,0.0000,0.0000,0.0000,0.0000,0.0000,0.0000,0
2026-04-17,14:52:28,6785,1,-0.0452,0.0043,0.0440,1.2953,14.5851,1,15.0068,0,0,58.9415,-1.3000,4.2595,-1.4339,168.6057,0.000,0.000,0.906,0.0000,0.0000,0.0000,0.0000,0.0000,0.0000,0
2026-04-17,14:52:28,6821,1,-0.2052,-0.0326,0.0307,0.9019,14.5852,1,15.0068,0,0,58.9671,-0.8988,4.2589,-0.2847,168.5323,0.000,0.000,0.903,0.0000,0.0000,0.0000,0.0000,0.0000,0.0000,0
2026-04-17,14:52:28,6857,1,-0.3652,-0.1532,0.0105,0.3094,14.5860,1,15.0068,0,0,58.8709,-2.2843,4.3951,2.6907,168.5901,0.000,0.000,0.900,0.0000,0.0000,0.0000,0.0000,0.0000,0.0000,0
2026-04-17,14:52:28,6893,1,-0.5252,-0.0602,0.0128,0.3764,14.5864,1,15.0068,0,0,58.9358,1.2550,4.4815,2.2494,168.5993,0.000,0.000,0.897,0.0000,0.0000,0.0000,0.0000,0.0000,0.0000,0
2026-04-17,14:52:28,6928,1,-0.6852,-0.0818,0.0116,0.3418,14.5868,1,15.0068,0,0,58.8090,-3.1296,4.4923,0.9359,168.6346,0.000,0.000,0.894,0.0000,0.0000,0.0000,0.0000,0.0000,0.0000,0
2026-04-17,14:52:28,6963,1,-0.8452,-0.1300,0.0185,0.5444,14.5873,1,15.0068,0,0,58.8436,0.9612,4.4334,-1.2325,168.6815,0.000,0.000,0.890,0.0000,0.0000,0.0000,0.0000,0.0000,0.0000,0
2026-04-17,14:52:28,6998,1,-1.0052,-0.1959,0.0158,0.4648,14.5885,1,15.0068,0,0,58.7577,-2.8906,4.2883,-3.8863,168.6974,0.000,0.000,0.887,0.0000,0.0000,0.0000,0.0000,0.0000,0.0000,0
2026-04-17,14:52:28,7033,1,-1.1652,-0.0873,0.0204,0.6001,14.5892,1,15.0068,0,0,58.7765,0.8070,4.0762,-5.8060,168.7840,0.000,0.000,0.884,0.0000,0.0000,0.0000,0.0000,0.0000,0.0000,0
2026-04-17,14:52:28,7069,1,-1.3252,-0.2370,0.0137,0.4035,14.5909,1,15.0068,0,0,58.7533,-1.5036,4.0106,-3.4545,168.9024,0.000,0.000,0.881,0.0000,0.0000,0.0000,0.0000,0.0000,0.0000,0
2026-04-17,14:52:28,7104,1,-1.4852,-0.0321,0.0183,0.5389,14.5916,1,15.0068,0,0,58.7616,-0.1111,4.0917,0.5152,169.3826,0.000,0.000,0.878,0.0000,0.0000,0.0000,0.0000,0.0000,0.0000,0
2026-04-17,14:52:28,7140,1,-1.6452,-0.2110,0.0282,0.8280,14.5930,1,15.0068,0,0,58.6475,-3.1094,4.4301,6.0419,170.0332,0.000,0.000,0.874,0.0000,0.0000,0.0000,0.0000,0.0000,0.0000,0
2026-04-17,14:52:28,7176,1,-1.8052,-0.4336,0.0359,1.0572,14.5953,1,15.0068,0,0,58.5651,-1.7934,4.6124,4.4633,170.2012,0.000,0.000,0.871,0.0000,0.0000,0.0000,0.0000,0.0000,0.0000,0
2026-04-17,14:52:28,7209,1,-1.8852,-0.4083,0.0265,0.7800,14.5970,1,15.0068,0,0,58.5524,-1.1660,4.7913,4.6958,170.4250,0.000,0.000,0.870,0.0000,0.0000,0.0000,0.0000,0.0000,0.0000,0
2026-04-17,14:52:29,7244,1,-1.9459,-0.5940,0.0265,0.7796,14.6024,1,15.0068,0,0,58.5074,-1.6119,4.6595,-1.6800,170.3050,0.000,0.000,0.866,0.0000,0.0000,0.0000,0.0000,0.0000,0.0000,0
2026-04-17,14:52:29,7280,1,-1.9399,-0.0981,0.0193,0.5690,14.6049,1,15.0068,0,0,58.6087,3.6176,4.6073,-1.6477,170.1638,0.000,0.000,0.863,0.0000,0.0000,0.0000,0.0000,0.0000,0.0000,0
2026-04-17,14:52:29,7316,1,-1.9387,-0.1298,0.0171,0.5034,14.6054,1,15.0068,0,0,58.4032,-6.1057,4.7058,1.0857,170.1747,0.000,0.000,0.860,0.0000,0.0000,0.0000,0.0000,0.0000,0.0000,0
2026-04-17,14:52:29,7352,1,-1.9375,-0.0828,0.0170,0.4991,14.6059,1,15.0068,0,0,58.5251,5.4293,4.7507,0.7901,170.0216,0.000,0.000,0.857,0.0000,0.0000,0.0000,0.0000,0.0000,0.0000,0
2026-04-17,14:52:29,7388,1,-1.9351,-0.2490,0.0294,0.8650,14.6069,1,15.0068,0,0,58.5194,-3.4643,4.7707,0.1795,169.9573,0.000,0.000,0.854,0.0000,0.0000,0.0000,0.0000,0.0000,0.0000,0
2026-04-17,14:52:29,7424,1,-1.9300,-0.2306,0.0143,0.4219,14.6090,1,15.0068,0,0,58.4471,0.4301,4.7485,-0.5391,170.0290,0.000,0.000,0.850,0.0000,0.0000,0.0000,0.0000,0.0000,0.0000,0
2026-04-17,14:52:29,7459,1,-1.9266,-0.1169,0.0279,0.8208,14.6104,1,15.0068,0,0,58.5516,0.7356,4.9031,2.9430,169.9684,0.000,0.000,0.847,0.0000,0.0000,0.0000,0.0000,0.0000,0.0000,0
2026-04-17,14:52:29,7495,1,-1.9230,-0.2705,0.0194,0.5693,14.6118,1,15.0068,0,0,58.2883,-4.9073,5.0606,3.6131,169.9797,0.000,0.000,0.844,0.0000,0.0000,0.0000,0.0000,0.0000,0.0000,0
2026-04-17,14:52:29,7531,1,-1.9214,-0.1032,0.0140,0.4107,14.6125,1,15.0068,0,0,58.5505,7.4810,5.1449,2.6634,169.6770,0.000,0.000,0.841,0.0000,0.0000,0.0000,0.0000,0.0000,0.0000,0
2026-04-17,14:52:29,7567,1,-1.9203,-0.0618,0.0129,0.3792,14.6129,1,15.0068,0,0,58.5792,3.9481,5.1556,0.9752,169.6356,0.000,0.000,0.838,0.0000,0.0000,0.0000,0.0000,0.0000,0.0000,0
2026-04-17,14:52:29,7603,1,-1.9193,-0.0770,0.0133,0.3915,14.6134,1,15.0068,0,0,58.8743,4.7545,5.1821,0.6087,169.6078,0.000,0.000,0.834,0.0000,0.0000,0.0000,0.0000,0.0000,0.0000,0
2026-04-17,14:52:29,7638,1,-1.9185,-0.0676,0.0153,0.4493,14.6137,1,15.0068,0,0,58.7456,-5.4126,5.2668,1.8559,169.4654,0.000,0.000,0.831,0.0000,0.0000,0.0000,0.0000,0.0000,0.0000,0
2026-04-17,14:52:29,7673,1,-1.9177,-0.0987,0.0155,0.4557,14.6140,1,15.0068,0,0,58.6996,-0.9316,5.3145,1.4518,169.4207,0.000,0.000,0.828,0.0000,0.0000,0.0000,0.0000,0.0000,0.0000,0
2026-04-17,14:52:29,7709,1,-1.9162,-0.1149,0.0187,0.5493,14.6147,1,15.0068,0,0,58.5556,-7.3148,5.3971,1.9416,169.2022,0.000,0.000,0.825,0.0000,0.0000,0.0000,0.0000,0.0000,0.0000,0
2026-04-17,14:52:29,7744,1,-1.9128,-0.1528,0.0091,0.2675,14.6160,1,15.0068,0,0,58.4355,-0.7868,5.5049,3.1826,169.3178,0.000,0.000,0.822,0.0000,0.0000,0.0000,0.0000,0.0000,0.0000,0
2026-04-17,14:52:29,7780,1,-1.9121,-0.0260,0.0137,0.4034,14.6163,1,15.0068,0,0,58.4012,-4.2672,5.7636,6.2716,169.1351,0.000,0.000,0.818,0.0000,0.0000,0.0000,0.0000,0.0000,0.0000,0
2026-04-17,14:52:29,7816,1,0.1632,0.0345,0.0277,0.8157,14.6164,1,15.0068,0,0,58.1402,-5.7474,5.9620,6.0215,169.2874,0.000,0.000,0.815,0.0000,0.0000,0.0000,0.0000,0.0000,0.0000,0
2026-04-17,14:52:29,7852,1,0.0590,0.0947,0.0330,0.9703,14.6157,1,15.0068,0,0,58.2075,0.6299,6.1812,6.5375,169.1568,0.000,0.000,0.812,0.0000,0.0000,0.0000,0.0000,0.0000,0.0000,0
2026-04-17,14:52:29,7888,1,-0.1010,0.0027,0.0336,0.9883,14.6155,1,15.0068,0,0,58.0446,-4.9197,6.3917,6.3934,169.2921,0.000,0.000,0.809,0.0000,0.0000,0.0000,0.0000,0.0000,0.0000,0
2026-04-17,14:52:29,7924,1,-0.2610,-0.0790,0.0178,0.5245,14.6158,1,15.0068,0,0,58.0736,0.3155,6.6140,6.7425,169.2498,0.000,0.000,0.806,0.0000,0.0000,0.0000,0.0000,0.0000,0.0000,0
2026-04-17,14:52:29,7960,1,-0.4210,0.0077,0.0153,0.4505,14.6161,1,15.0068,0,0,57.9947,-3.4739,6.8679,7.0803,169.3446,0.000,0.000,0.802,0.0000,0.0000,0.0000,0.0000,0.0000,0.0000,0
2026-04-17,14:52:29,7998,1,-0.5410,-0.0046,0.0172,0.5067,14.6161,1,15.0068,0,0,57.9515,-1.4756,7.0406,6.5828,169.4490,0.000,0.000,0.800,0.0000,0.0000,0.0000,0.0000,0.0000,0.0000,0
2026-04-17,14:52:29,8034,1,0.1316,-0.0116,0.0144,0.4232,14.6162,1,15.0068,0,0,57.9463,-0.7953,7.2473,5.9060,169.4486,0.000,0.000,0.797,0.0000,0.0000,0.0000,0.0000,0.0000,0.0000,0
2026-04-17,14:52:29,8071,1,0.1390,0.0722,0.0345,1.0158,14.6159,1,15.0068,0,0,57.8831,-1.5354,7.3070,3.1189,169.4012,0.000,0.000,0.794,0.0000,0.0000,0.0000,0.0000,0.0000,0.0000,0
2026-04-17,14:52:29,8107,1,-0.0210,0.0236,0.0415,1.2214,14.6155,1,15.0068,0,0,57.8675,-1.1231,7.3583,1.6069,169.2526,0.000,0.000,0.790,0.0000,0.0000,0.0000,0.0000,0.0000,0.0000,0
2026-04-17,14:52:29,8143,1,-0.1810,-0.0095,0.0277,0.8143,14.6155,1,15.0068,0,0,57.8226,-1.6977,7.3420,0.3562,169.2368,0.000,0.000,0.787,0.0000,0.0000,0.0000,0.0000,0.0000,0.0000,0
2026-04-17,14:52:29,8179,1,-0.3410,-0.0547,0.0161,0.4731,14.6159,1,15.0068,0,0,57.8714,2.2727,7.3881,0.9910,169.1002,0.000,0.000,0.784,0.0000,0.0000,0.0000,0.0000,0.0000,0.0000,0
2026-04-17,14:52:29,8214,1,-0.5010,0.0078,0.0139,0.4087,14.6158,1,15.0068,0,0,58.1035,7.1966,7.4948,2.5721,169.0998,0.000,0.000,0.781,0.0000,0.0000,0.0000,0.0000,0.0000,0.0000,0
2026-04-17,14:52:30,8249,1,0.1632,0.0502,0.0228,0.6719,14.6157,1,15.0068,0,0,58.2113,1.7087,7.6208,3.2448,169.0128,0.000,0.000,0.778,0.0000,0.0000,0.0000,0.0000,0.0000,0.0000,0
2026-04-17,14:52:30,8284,1,0.1148,0.1165,0.0389,1.1442,14.6152,1,15.0068,0,0,58.1426,-2.9695,7.6970,2.6089,169.0196,0.000,0.000,0.774,0.0000,0.0000,0.0000,0.0000,0.0000,0.0000,0
2026-04-17,14:52:30,8320,1,-0.0452,0.0637,0.0327,0.9616,14.6145,1,15.0068,0,0,58.0486,-3.4986,7.8444,3.7386,168.9410,0.000,0.000,0.771,0.0000,0.0000,0.0000,0.0000,0.0000,0.0000,0
2026-04-17,14:52:30,8355,1,-0.2052,-0.0243,0.0221,0.6496,14.6145,1,15.0068,0,0,57.9534,-2.9062,7.9023,2.3489,168.9191,0.000,0.000,0.768,0.0000,0.0000,0.0000,0.0000,0.0000,0.0000,0
2026-04-17,14:52:30,8391,1,-0.3652,-0.1589,0.0211,0.6197,14.6156,1,15.0068,0,0,57.9096,-1.8120,7.9053,0.7646,168.8763,0.000,0.000,0.765,0.0000,0.0000,0.0000,0.0000,0.0000,0.0000,0
2026-04-17,14:52:30,8427,1,0.1474,0.0552,0.0208,0.6112,14.6161,1,15.0068,0,0,57.8761,-1.5796,7.9448,0.8632,168.8737,0.000,0.000,0.762,0.0000,0.0000,0.0000,0.0000,0.0000,0.0000,0
2026-04-17,14:52:30,8462,1,0.0990,0.0710,0.0372,1.0934,14.6157,1,15.0068,0,0,57.7057,-6.3848,7.9505,0.1969,168.9178,0.000,0.000,0.758,0.0000,0.0000,0.0000,0.0000,0.0000,0.0000,0
2026-04-17,14:52:30,8497,1,-0.0610,0.0128,0.0383,1.1272,14.6154,1,15.0068,0,0,57.5442,-5.1985,7.9439,-0.2322,168.8710,0.000,0.000,0.755,0.0000,0.0000,0.0000,0.0000,0.0000,0.0000,0
2026-04-17,14:52:30,8533,1,-0.2210,-0.0352,0.0252,0.7409,14.6156,1,15.0068,0,0,57.4360,-4.2963,7.9960,0.9758,168.8149,0.000,0.000,0.752,0.0000,0.0000,0.0000,0.0000,0.0000,0.0000,0
2026-04-17,14:52:30,8569,1,-0.3810,-0.0076,0.0177,0.5201,14.6161,1,15.0068,0,0,57.2967,-3.7803,8.0825,1.9245,168.8522,0.000,0.000,0.749,0.0000,0.0000,0.0000,0.0000,0.0000,0.0000,0
2026-04-17,14:52:30,8605,1,-0.5410,0.0004,0.0140,0.4130,14.6161,1,15.0068,0,0,57.1461,-5.2221,8.1844,2.6847,168.9336,0.000,0.000,0.746,0.0000,0.0000,0.0000,0.0000,0.0000,0.0000,0
2026-04-17,14:52:30,8641,1,0.1474,0.0418,0.0208,0.6113,14.6160,1,15.0068,0,0,57.0714,-0.9795,8.2827,2.6421,169.0250,0.000,0.000,0.742,0.0000,0.0000,0.0000,0.0000,0.0000,0.0000,0
2026-04-17,14:52:30,8676,1,0.1548,0.0763,0.0339,0.9959,14.6155,1,15.0068,0,0,57.0001,-2.7066,8.4004,3.2124,169.0964,0.000,0.000,0.739,0.0000,0.0000,0.0000,0.0000,0.0000,0.0000,0
2026-04-17,14:52:30,8712,1,-0.0052,0.0856,0.0348,1.0245,14.6147,1,15.0068,0,0,56.8863,-4.0462,8.5694,4.2819,169.2981,0.000,0.000,0.736,0.0000,0.0000,0.0000,0.0000,0.0000,0.0000,0
2026-04-17,14:52:30,8747,1,-0.1652,-0.0229,0.0251,0.7380,14.6145,1,15.0068,0,0,56.8303,-1.6249,8.6620,2.7820,169.3965,0.000,0.000,0.733,0.0000,0.0000,0.0000,0.0000,0.0000,0.0000,0
2026-04-17,14:52:30,8780,1,-0.2452,-0.1014,0.0154,0.4535,14.6148,1,15.0068,0,0,56.7881,-1.4627,8.7685,2.8888,169.5797,0.000,0.000,0.731,0.0000,0.0000,0.0000,0.0000,0.0000,0.0000,0
2026-04-17,14:52:30,8816,1,-0.4052,-0.0716,0.0129,0.3805,14.6155,1,15.0068,0,0,56.8080,0.6876,8.7278,-0.0290,169.5806,0.000,0.000,0.728,0.0000,0.0000,0.0000,0.0000,0.0000,0.0000,0
2026-04-17,14:52:30,8851,1,-0.5652,-0.0781,0.0120,0.3517,14.6158,1,15.0068,0,0,56.6846,-4.2840,8.7279,-0.2278,169.5877,0.000,0.000,0.725,0.0000,0.0000,0.0000,0.0000,0.0000,0.0000,0
2026-04-17,14:52:30,8886,1,0.1632,0.0466,0.0236,0.6949,14.6158,1,15.0068,0,0,56.6327,-0.5224,8.7731,0.6542,169.5070,0.000,0.000,0.722,0.0000,0.0000,0.0000,0.0000,0.0000,0.0000,0
2026-04-17,14:52:30,8922,1,0.1148,0.1049,0.0377,1.1079,14.6152,1,15.0068,0,0,56.6326,-0.7280,8.8512,1.7061,169.3947,0.000,0.000,0.718,0.0000,0.0000,0.0000,0.0000,0.0000,0.0000,0
2026-04-17,14:52:30,8958,1,-0.0452,0.0666,0.0308,0.9055,14.6144,1,15.0068,0,0,56.5654,-1.3717,8.9054,1.5019,169.3482,0.000,0.000,0.715,0.0000,0.0000,0.0000,0.0000,0.0000,0.0000,0
2026-04-17,14:52:30,8993,1,-0.2052,-0.0414,0.0217,0.6389,14.6146,1,15.0068,0,0,56.6221,1.1326,8.9454,1.1984,169.2730,0.000,0.000,0.712,0.0000,0.0000,0.0000,0.0000,0.0000,0.0000,0
2026-04-17,14:52:30,9029,1,-0.3652,-0.2164,0.0178,0.5249,14.6160,1,15.0068,0,0,56.5556,-1.2079,9.0006,1.4501,169.3069,0.000,0.000,0.709,0.0000,0.0000,0.0000,0.0000,0.0000,0.0000,0
2026-04-17,14:52:30,9064,1,-0.5252,-0.0151,0.0179,0.5254,14.6166,1,15.0068,0,0,57.1599,17.2900,9.1334,3.0390,169.4585,0.000,0.000,0.706,0.0000,0.0000,0.0000,0.0000,0.0000,0.0000,0
2026-04-17,14:52:30,9099,1,-0.6852,-0.0180,0.0191,0.5626,14.6170,1,15.0068,0,0,57.0581,-6.2489,9.3267,4.1575,169.8387,0.000,0.000,0.702,0.0000,0.0000,0.0000,0.0000,0.0000,0.0000,0
2026-04-17,14:52:30,9135,1,-0.8452,-0.0112,0.0185,0.5441,14.6172,1,15.0068,0,0,56.7988,-4.4390,9.3897,1.8468,169.9490,0.000,0.000,0.699,0.0000,0.0000,0.0000,0.0000,0.0000,0.0000,0
2026-04-17,14:52:30,9171,1,0.1474,-0.0065,0.0276,0.8117,14.6177,1,15.0068,0,0,56.6324,-7.0260,9.4477,1.2786,169.9697,0.000,0.000,0.696,0.0000,0.0000,0.0000,0.0000,0.0000,0.0000,0
2026-04-17,14:52:30,9206,1,0.0432,0.0707,0.0378,1.1112,14.6173,1,15.0068,0,0,56.3326,-8.4129,9.5054,1.1926,170.1193,0.032,0.000,0.693,0.0000,0.0000,0.0000,0.0000,0.0000,0.0000,0
2026-04-17,14:52:31,9242,1,-0.1168,0.0104,0.0325,0.9550,14.6171,1,15.0068,0,0,56.2223,-4.4573,9.5958,1.6618,170.0203,0.096,0.000,0.690,0.0000,0.0000,0.0000,0.0000,0.0000,0.0000,0
2026-04-17,14:52:31,9277,1,-0.2768,-0.0441,0.0122,0.3584,14.6173,1,15.0068,0,0,56.0655,-3.9245,9.6253,0.7257,169.8309,0.088,0.000,0.686,0.0000,0.0000,0.0000,0.0000,0.0000,0.0000,0
2026-04-17,14:52:31,9313,1,-0.4368,-0.0177,0.0146,0.4295,14.6174,1,15.0068,0,0,56.0745,-0.4464,9.5674,-0.6775,169.6421,0.056,0.000,0.683,0.0000,0.0000,0.0000,0.0000,0.0000,0.0000,0
2026-04-17,14:52:31,9348,1,-0.5968,-0.0458,0.0133,0.3908,14.6177,1,15.0068,0,0,55.9050,-5.2514,9.5954,0.3175,169.5767,0.024,0.000,0.680,0.0000,0.0000,0.0000,0.0000,0.0000,0.0000,0
2026-04-17,14:52:31,9383,1,0.1632,0.0302,0.0284,0.8358,14.6179,1,15.0068,0,0,56.3531,9.6316,9.6445,0.8460,169.4693,0.000,0.000,0.677,0.0000,0.0000,0.0000,0.0000,0.0000,0.0000,0
2026-04-17,14:52:31,9419,1,0.0032,0.0295,0.0386,1.1365,14.6176,1,15.0068,0,0,56.3898,-2.2610,9.6718,0.4985,169.3024,0.000,0.000,0.674,0.0000,0.0000,0.0000,0.0000,0.0000,0.0000,0
2026-04-17,14:52:31,9454,1,-0.1568,-0.0161,0.0323,0.9511,14.6177,1,15.0068,0,0,56.2091,-5.6073,9.5681,-2.2278,169.3928,0.000,0.000,0.670,0.0000,0.0000,0.0000,0.0000,0.0000,0.0000,0
2026-04-17,14:52:31,9490,1,-0.3168,-0.1129,0.0137,0.4016,14.6182,1,15.0068,0,0,56.0213,-7.0077,9.4919,-2.4879,169.2891,0.000,0.000,0.667,0.0000,0.0000,0.0000,0.0000,0.0000,0.0000,0
2026-04-17,14:52:31,9526,1,-0.4768,-0.0688,0.0132,0.3880,14.6186,1,15.0068,0,0,55.9122,-4.3836,9.4048,-3.0463,169.4344,0.000,0.000,0.664,0.0000,0.0000,0.0000,0.0000,0.0000,0.0000,0
2026-04-17,14:52:31,9562,1,-0.5568,-0.0044,0.0180,0.5308,14.6188,1,15.0068,0,0,55.9735,-1.7102,9.4920,-1.8382,169.5374,0.000,0.000,0.662,0.0000,0.0000,0.0000,0.0000,0.0000,0.0000,0
2026-04-17,14:52:31,9597,1,-0.7168,-0.0512,0.0197,0.5782,14.6194,1,15.0068,0,0,55.7495,-5.6473,9.4920,-0.7462,169.7893,0.000,0.000,0.659,0.0000,0.0000,0.0000,0.0000,0.0000,0.0000,0
2026-04-17,14:52:31,9633,1,-0.8768,-0.0293,0.0207,0.6096,14.6199,1,15.0068,0,0,55.5228,-7.6285,9.6952,3.3483,169.9542,0.000,0.000,0.656,0.0000,0.0000,0.0000,0.0000,0.0000,0.0000,0
2026-04-17,14:52:31,9669,1,-1.0368,-0.1253,0.0195,0.5727,14.6207,1,15.0068,0,0,55.2505,-7.5819,9.9480,5.6201,170.0419,0.000,0.000,0.653,0.0000,0.0000,0.0000,0.0000,0.0000,0.0000,0
2026-04-17,14:52:31,9704,1,0.1474,0.0284,0.0224,0.6576,14.6211,1,15.0068,0,0,55.2809,1.3719,10.1192,5.1534,169.9209,0.000,0.000,0.650,0.0000,0.0000,0.0000,0.0000,0.0000,0.0000,0
2026-04-17,14:52:31,9739,1,0.0990,0.0598,0.0423,1.2451,14.6209,1,15.0068,0,0,55.2940,-1.7201,10.3602,6.2840,170.0130,0.000,0.000,0.646,0.0000,0.0000,0.0000,0.0000,0.0000,0.0000,0
2026-04-17,14:52:31,9775,1,-0.0610,0.0262,0.0439,1.2907,14.6206,1,15.0068,0,0,55.0728,-8.4844,10.5640,5.7188,170.0548,0.000,0.000,0.643,0.0000,0.0000,0.0000,0.0000,0.0000,0.0000,0
2026-04-17,14:52:31,9811,1,-0.2210,-0.0225,0.0279,0.8198,14.6207,1,15.0068,0,0,54.9096,-4.9627,10.7286,4.9303,169.9898,0.064,0.000,0.640,0.0000,0.0000,0.0000,0.0000,0.0000,0.0000,0
2026-04-17,14:52:31,9847,1,-0.3810,-0.1497,0.0185,0.5439,14.6216,1,15.0068,0,0,54.6322,-8.6835,10.8750,4.4859,170.0550,0.032,0.000,0.637,0.0000,0.0000,0.0000,0.0000,0.0000,0.0000,0
2026-04-17,14:52:31,9882,1,-0.5410,-0.1752,0.0217,0.6382,14.6225,1,15.0068,0,0,54.3631,-9.6602,11.1224,6.2807,170.2020,0.000,0.000,0.634,0.0000,0.0000,0.0000,0.0000,0.0000,0.0000,0
2026-04-17,14:52:31,9917,1,-0.7010,-0.5247,0.0366,1.0755,14.6253,1,15.0068,0,0,54.0985,-8.1124,11.3324,5.6425,170.3261,0.032,0.000,0.630,0.0000,0.0000,0.0000,0.0000,0.0000,0.0000,0
2026-04-17,14:52:31,9953,1,-0.8610,-0.5298,0.0416,1.2245,14.6293,1,15.0068,0,0,54.0702,0.7456,11.5106,5.2994,170.0987,0.048,0.000,0.627,0.0000,0.0000,0.0000,0.0000,0.0000,0.0000,0
2026-04-17,14:52:31,9989,1,-1.0210,-0.2787,0.0268,0.7878,14.6318,1,15.0068,0,0,54.0015,-5.9395,11.6220,3.5924,169.9890,0.016,0.000,0.659,0.0000,0.0000,0.0000,0.0000,0.0000,0.0000,0
2026-04-17,14:52:31,10024,1,-1.1810,-0.3243,0.0107,0.3161,14.6348,1,15.0068,0,0,53.6955,-6.0137,11.7239,3.2704,169.9470,0.000,0.000,0.691,0.0000,0.0000,0.0000,0.0000,0.0000,0.0000,0
2026-04-17,14:52:31,10060,1,-1.3410,-0.0169,0.0247,0.7272,14.6363,1,15.0068,0,0,53.9002,2.8038,11.8864,4.2796,169.8170,0.000,0.000,0.723,0.0000,0.0000,0.0000,0.0000,0.0000,0.0000,0
2026-04-17,14:52:31,10095,1,-1.5010,-0.3166,0.0269,0.7917,14.6376,1,15.0068,0,0,53.4555,-11.2477,11.9941,3.3143,169.6815,0.000,0.000,0.755,0.0000,0.0000,0.0000,0.0000,0.0000,0.0000,0
2026-04-17,14:52:31,10131,1,-1.6610,-0.2367,0.0119,0.3513,14.6396,1,15.0068,0,0,53.8223,10.5973,12.0107,1.6151,169.5847,0.000,0.000,0.761,0.0000,0.0000,0.0000,0.0000,0.0000,0.0000,0
2026-04-17,14:52:31,10167,1,-1.8210,-0.2005,0.0356,1.0479,14.6410,1,15.0068,0,0,53.5012,-12.9000,12.1991,4.3078,169.5499,0.000,0.000,0.758,0.0000,0.0000,0.0000,0.0000,0.0000,0.0000,0
2026-04-17,14:52:31,10203,1,-1.8438,-0.4800,0.0456,1.3425,14.6437,1,15.0068,0,0,53.4783,4.2696,12.3053,3.2815,169.7035,0.000,0.000,0.754,0.0000,0.0000,0.0000,0.0000,0.0000,0.0000,0
2026-04-17,14:52:31,10239,1,-1.8346,-0.5795,0.0277,0.8154,14.6473,1,15.0068,0,0,53.4742,-5.2595,12.4094,3.1422,169.5396,0.000,0.000,0.751,0.0000,0.0000,0.0000,0.0000,0.0000,0.0000,0
2026-04-17,14:52:32,10274,1,-1.8257,-0.3881,0.0258,0.7592,14.6508,1,15.0068,0,0,53.4460,3.5180,12.4747,1.8768,169.8408,0.000,0.000,0.748,0.0000,0.0000,0.0000,0.0000,0.0000,0.0000,0
2026-04-17,14:52:32,10310,1,-1.8182,-0.5257,0.0337,0.9915,14.6537,1,15.0068,0,0,53.3605,-6.6944,12.6140,3.3149,169.8101,0.000,0.000,0.745,0.0000,0.0000,0.0000,0.0000,0.0000,0.0000,0
2026-04-17,14:52:32,10343,1,-1.8108,-0.6034,0.0408,1.2007,14.6566,1,15.0068,0,0,53.3072,-4.6856,12.7283,3.4576,169.9489,0.000,0.000,0.743,0.0000,0.0000,0.0000,0.0000,0.0000,0.0000,0
2026-04-17,14:52:32,10379,1,-1.7971,-0.4933,0.0449,1.3216,14.6619,1,15.0068,0,0,53.4751,3.3382,12.7576,1.6130,169.6127,0.000,0.000,0.740,0.0000,0.0000,0.0000,0.0000,0.0000,0.0000,0
2026-04-17,14:52:32,10414,1,-1.7893,-0.3751,0.0415,1.2208,14.6649,1,15.0068,0,0,53.2726,-6.7466,12.7403,0.0400,169.5576,0.000,0.000,0.737,0.0000,0.0000,0.0000,0.0000,0.0000,0.0000,0
2026-04-17,14:52:32,10450,1,-1.7827,-0.4267,0.0244,0.7191,14.6674,1,15.0068,0,0,53.2244,-1.8114,12.7435,-0.1528,169.4676,0.000,0.000,0.734,0.0000,0.0000,0.0000,0.0000,0.0000,0.0000,0
2026-04-17,14:52:32,10485,1,-1.7737,-0.4362,0.0198,0.5810,14.6708,1,15.0068,0,0,53.3119,2.7965,12.6901,-1.1701,169.2635,0.000,0.000,0.730,0.0000,0.0000,0.0000,0.0000,0.0000,0.0000,0
2026-04-17,14:52:32,10520,1,-1.7662,-0.3759,0.0367,1.0801,14.6736,1,15.0068,0,0,53.3013,-0.8041,12.7657,1.2171,169.3515,0.000,0.000,0.727,0.0000,0.0000,0.0000,0.0000,0.0000,0.0000,0
2026-04-17,14:52:32,10556,1,-1.7571,-0.5636,0.0269,0.7920,14.6771,1,15.0068,0,0,53.2175,-2.3551,12.9200,3.6383,169.2206,0.000,0.000,0.724,0.0000,0.0000,0.0000,0.0000,0.0000,0.0000,0
2026-04-17,14:52:32,10592,1,-1.7478,-0.3459,0.0074,0.2181,14.6805,1,15.0068,0,0,53.2843,2.0532,13.0832,4.2821,169.3555,0.000,0.000,0.721,0.0000,0.0000,0.0000,0.0000,0.0000,0.0000,0
2026-04-17,14:52:32,10628,1,-1.7440,-0.0774,0.0245,0.7203,14.6820,1,15.0068,0,0,53.1925,-2.0010,13.2182,4.2999,169.2065,0.000,0.000,0.718,0.0000,0.0000,0.0000,0.0000,0.0000,0.0000,0
2026-04-17,14:52:32,10664,1,-1.7394,-0.3169,0.0259,0.7628,14.6837,1,15.0068,0,0,53.1183,-0.4050,13.3654,4.3625,169.3384,0.000,0.000,0.714,0.0000,0.0000,0.0000,0.0000,0.0000,0.0000,0
2026-04-17,14:52:32,10700,1,-1.7338,-0.2773,0.0292,0.8597,14.6857,1,15.0068,0,0,53.3177,4.6944,13.4212,2.4038,169.1217,0.000,0.000,0.711,0.0000,0.0000,0.0000,0.0000,0.0000,0.0000,0
2026-04-17,14:52:32,10736,1,-1.7306,-0.2125,0.0314,0.9227,14.6870,1,15.0068,0,0,53.2236,-3.7617,13.3904,0.0058,169.1865,0.000,0.000,0.708,0.0000,0.0000,0.0000,0.0000,0.0000,0.0000,0
2026-04-17,14:52:32,10772,1,-1.7242,-0.4555,0.0323,0.9498,14.6893,1,15.0068,0,0,53.2081,0.9668,13.4383,1.1757,169.1090,0.000,0.000,0.705,0.0000,0.0000,0.0000,0.0000,0.0000,0.0000,0
2026-04-17,14:52:32,10807,1,-1.7150,-0.4497,0.0341,1.0037,14.6927,1,15.0068,0,0,53.3522,3.2053,13.4486,0.3603,169.0151,0.000,0.000,0.702,0.0000,0.0000,0.0000,0.0000,0.0000,0.0000,0
2026-04-17,14:52:32,10843,1,-1.7088,-0.0284,0.0331,0.9736,14.6949,1,15.0068,0,0,53.2481,-1.2744,13.4455,0.1099,169.0917,0.000,0.000,0.698,0.0000,0.0000,0.0000,0.0000,0.0000,0.0000,0
2026-04-17,14:52:32,10879,1,-1.7057,-0.3065,0.0336,0.9887,14.6961,1,15.0068,0,0,53.1908,-4.2410,13.5453,1.9214,169.0704,0.000,0.000,0.695,0.0000,0.0000,0.0000,0.0000,0.0000,0.0000,0
2026-04-17,14:52:32,10914,1,-1.6977,-0.4486,0.0245,0.7206,14.6990,1,15.0068,0,0,53.1683,0.5329,13.5343,0.0685,169.2591,0.000,0.000,0.692,0.0000,0.0000,0.0000,0.0000,0.0000,0.0000,0
2026-04-17,14:52:32,10952,1,-1.6857,-0.5703,0.0370,1.0892,14.7033,1,15.0068,0,0,53.2209,-0.0708,13.5832,0.9142,169.5079,0.000,0.000,0.689,0.0000,0.0000,0.0000,0.0000,0.0000,0.0000,0
2026-04-17,14:52:32,10987,1,-1.6712,-0.7592,0.0300,0.8815,14.7085,1,15.0068,0,0,53.0061,-4.3717,13.5836,-0.0783,169.9333,0.000,0.000,0.686,0.0000,0.0000,0.0000,0.0000,0.0000,0.0000,0
2026-04-17,14:52:32,11023,1,-1.6611,-0.2656,0.0196,0.5764,14.7121,1,15.0068,0,0,53.2607,8.2486,13.6716,1.0235,169.9449,0.000,0.000,0.682,0.0000,0.0000,0.0000,0.0000,0.0000,0.0000,0
2026-04-17,14:52:32,11059,1,-1.6579,-0.2553,0.0316,0.9280,14.7133,1,15.0068,0,0,52.9727,-9.5644,13.7825,2.1331,169.9817,0.000,0.000,0.679,0.0000,0.0000,0.0000,0.0000,0.0000,0.0000,0
2026-04-17,14:52:32,11094,1,-1.6502,-0.2936,0.0217,0.6397,14.7160,1,15.0068,0,0,53.0505,5.7257,13.8117,0.9478,169.8383,0.000,0.000,0.676,0.0000,0.0000,0.0000,0.0000,0.0000,0.0000,0
2026-04-17,14:52:32,11135,1,-1.6418,-0.2071,0.0410,1.2045,14.7189,1,15.0068,0,0,52.9957,-2.1636,13.8499,0.6735,169.8150,0.000,0.000,0.674,0.0000,0.0000,0.0000,0.0000,0.0000,0.0000,0
2026-04-17,14:52:32,11171,1,-1.6356,-0.3154,0.0297,0.8726,14.7211,1,15.0068,0,0,52.8738,-1.0448,13.8747,0.8456,169.8905,0.000,0.000,0.670,0.0000,0.0000,0.0000,0.0000,0.0000,0.0000,0
2026-04-17,14:52:32,11207,1,-1.6257,-0.4463,0.0090,0.2659,14.7245,1,15.0068,0,0,53.0634,5.9949,13.8938,0.3208,169.5465,0.000,0.000,0.667,0.0000,0.0000,0.0000,0.0000,0.0000,0.0000,0
2026-04-17,14:52:33,11243,1,-1.6236,-0.0711,0.0189,0.5567,14.7253,1,15.0068,0,0,53.0200,-2.9018,13.8891,0.1586,169.5928,0.000,0.000,0.664,0.0000,0.0000,0.0000,0.0000,0.0000,0.0000,0
2026-04-17,14:52:33,11279,1,-1.6219,-0.0013,0.0190,0.5593,14.7259,1,15.0068,0,0,53.0254,2.0309,14.0025,2.5240,169.4684,0.000,0.000,0.661,0.0000,0.0000,0.0000,0.0000,0.0000,0.0000,0
2026-04-17,14:52:33,11314,1,-1.6213,-0.0052,0.0160,0.4707,14.7261,1,15.0068,0,0,53.1086,1.2735,14.1343,3.3935,169.3647,0.000,0.000,0.658,0.0000,0.0000,0.0000,0.0000,0.0000,0.0000,0
2026-04-17,14:52:33,11350,1,0.1632,0.0491,0.0265,0.7798,14.7261,1,15.0068,0,0,53.0776,0.8318,14.1876,2.1712,169.3553,0.000,0.000,0.654,0.0000,0.0000,0.0000,0.0000,0.0000,0.0000,0
2026-04-17,14:52:33,11386,1,0.0590,0.1257,0.0315,0.9255,14.7254,1,15.0068,0,0,53.1290,0.4325,14.2126,1.2927,169.2763,0.000,0.000,0.651,0.0000,0.0000,0.0000,0.0000,0.0000,0.0000,0
2026-04-17,14:52:33,11421,1,-0.1010,-0.0145,0.0295,0.8691,14.7251,1,15.0068,0,0,53.0615,0.1106,14.3030,2.5683,169.3004,0.000,0.000,0.648,0.0000,0.0000,0.0000,0.0000,0.0000,0.0000,0
2026-04-17,14:52:33,11456,1,-0.2610,-0.0643,0.0130,0.3833,14.7253,1,15.0068,0,0,53.2040,2.9979,14.4180,3.1009,169.2003,0.000,0.000,0.645,0.0000,0.0000,0.0000,0.0000,0.0000,0.0000,0
2026-04-17,14:52:33,11492,1,-0.4210,-0.0236,0.0135,0.3964,14.7254,1,15.0068,0,0,53.1171,-2.4013,14.4386,1.2445,169.1885,0.000,0.000,0.642,0.0000,0.0000,0.0000,0.0000,0.0000,0.0000,0
2026-04-17,14:52:33,11527,1,-0.5810,-0.0299,0.0166,0.4886,14.7258,1,15.0068,0,0,53.1549,1.2980,14.4590,0.8348,169.2293,0.000,0.000,0.638,0.0000,0.0000,0.0000,0.0000,0.0000,0.0000,0
2026-04-17,14:52:33,11563,1,-0.7410,-0.0764,0.0222,0.6538,14.7266,1,15.0068,0,0,53.1381,0.1438,14.5218,1.3810,169.2208,0.000,0.000,0.635,0.0000,0.0000,0.0000,0.0000,0.0000,0.0000,0
2026-04-17,14:52:33,11598,1,-0.9010,-0.1868,0.0123,0.3614,14.7281,1,15.0068,0,0,53.0642,-1.7709,14.5476,0.6296,169.2557,0.000,0.000,0.632,0.0000,0.0000,0.0000,0.0000,0.0000,0.0000,0
2026-04-17,14:52:33,11633,1,-1.0610,-0.0168,0.0124,0.3657,14.7287,1,15.0068,0,0,53.1847,3.6794,14.4436,-2.2207,169.1450,0.000,0.000,0.629,0.0000,0.0000,0.0000,0.0000,0.0000,0.0000,0
2026-04-17,14:52:33,11668,1,0.1632,0.0412,0.0236,0.6939,14.7286,1,15.0068,0,0,53.0693,-3.6474,14.2856,-4.0762,169.1731,0.000,0.000,0.626,0.0000,0.0000,0.0000,0.0000,0.0000,0.0000,0
2026-04-17,14:52:33,11703,1,0.2264,0.1518,0.0284,0.8349,14.7277,1,15.0068,0,0,53.1158,2.7978,14.1986,-3.2051,169.1361,0.000,0.000,0.622,0.0000,0.0000,0.0000,0.0000,0.0000,0.0000,0
2026-04-17,14:52:33,11739,1,0.0664,0.1838,0.0309,0.9092,14.7266,1,15.0068,0,0,53.1104,-0.7275,14.1597,-1.8344,169.0613,0.000,0.000,0.619,0.0000,0.0000,0.0000,0.0000,0.0000,0.0000,0
2026-04-17,14:52:33,11775,1,-0.0936,0.0473,0.0175,0.5140,14.7256,1,15.0068,0,0,53.1087,0.5779,14.2314,0.9623,169.0973,0.000,0.000,0.616,0.0000,0.0000,0.0000,0.0000,0.0000,0.0000,0
2026-04-17,14:52:33,11811,1,-0.2536,0.0191,0.0124,0.3657,14.7255,1,15.0068,0,0,53.1256,-0.6522,14.3547,2.9519,169.0146,0.000,0.000,0.613,0.0000,0.0000,0.0000,0.0000,0.0000,0.0000,0
2026-04-17,14:52:33,11847,1,0.1474,0.0443,0.0179,0.5250,14.7254,1,15.0068,0,0,53.1247,0.6848,14.4780,3.4951,169.0515,0.000,0.000,0.610,0.0000,0.0000,0.0000,0.0000,0.0000,0.0000,0
2026-04-17,14:52:33,11883,1,0.2106,0.1375,0.0239,0.7019,14.7245,1,15.0068,0,0,53.0959,-0.7307,14.6061,3.6875,168.9637,0.000,0.000,0.606,0.0000,0.0000,0.0000,0.0000,0.0000,0.0000,0
2026-04-17,14:52:33,11916,1,0.2422,0.2224,0.0220,0.6474,14.7236,1,15.0068,0,0,53.0995,-0.3654,14.6338,3.0471,168.9760,0.000,0.000,0.605,0.0000,0.0000,0.0000,0.0000,0.0000,0.0000,0
2026-04-17,14:52:33,11951,1,0.1380,0.1112,0.0402,1.1834,14.7219,1,15.0068,0,0,53.0554,-1.7075,14.5841,-0.4122,168.9810,0.000,0.000,0.602,0.0000,0.0000,0.0000,0.0000,0.0000,0.0000,0
2026-04-17,14:52:33,11987,1,-0.0220,0.0359,0.0433,1.2746,14.7214,1,15.0068,0,0,53.1328,1.9522,14.4920,-2.0019,168.9847,0.000,0.000,0.598,0.0000,0.0000,0.0000,0.0000,0.0000,0.0000,0
2026-04-17,14:52:33,12023,1,-0.1820,-0.0690,0.0394,1.1598,14.7217,1,15.0068,0,0,53.0829,-2.6107,14.4263,-2.0778,168.9739,0.000,0.000,0.595,0.0000,0.0000,0.0000,0.0000,0.0000,0.0000,0
2026-04-17,14:52:33,12059,1,-0.3420,-0.1687,0.0278,0.8167,14.7228,1,15.0068,0,0,53.1114,1.7928,14.3391,-2.4965,169.0092,0.000,0.000,0.592,0.0000,0.0000,0.0000,0.0000,0.0000,0.0000,0
2026-04-17,14:52:33,12095,1,-0.5020,-0.3364,0.0327,0.9625,14.7248,1,15.0068,0,0,53.1011,-0.6406,14.2975,-1.8795,169.0824,0.000,0.000,0.589,0.0000,0.0000,0.0000,0.0000,0.0000,0.0000,0
2026-04-17,14:52:33,12131,1,-0.6620,-0.2807,0.0343,1.0099,14.7269,1,15.0068,0,0,53.0686,-0.1494,14.3093,-0.5669,169.1702,0.000,0.000,0.586,0.0000,0.0000,0.0000,0.0000,0.0000,0.0000,0
2026-04-17,14:52:33,12166,1,-0.8220,-0.1180,0.0233,0.6861,14.7276,1,15.0068,0,0,53.0388,-3.0265,14.3895,1.3714,169.6010,0.000,0.000,0.582,0.0000,0.0000,0.0000,0.0000,0.0000,0.0000,0
2026-04-17,14:52:33,12202,1,-0.9820,0.0044,0.0182,0.5351,14.7284,1,15.0068,0,0,52.9514,-0.5065,14.6588,4.7970,170.3466,0.000,0.000,0.579,0.0000,0.0000,0.0000,0.0000,0.0000,0.0000,0
2026-04-17,14:52:33,12237,1,0.1474,0.0471,0.0175,0.5158,14.7284,1,15.0068,0,0,52.9552,-0.4317,14.8089,3.5798,170.3656,0.000,0.000,0.576,0.0000,0.0000,0.0000,0.0000,0.0000,0.0000,0
2026-04-17,14:52:34,12272,1,0.1548,0.0892,0.0319,0.9380,14.7279,1,15.0068,0,0,52.8968,-0.2861,14.7846,0.1837,170.0532,0.000,0.000,0.573,0.0000,0.0000,0.0000,0.0000,0.0000,0.0000,0
2026-04-17,14:52:34,12308,1,-0.0052,0.0138,0.0420,1.2351,14.7275,1,15.0068,0,0,52.9434,1.2382,14.7965,0.3972,169.8486,0.000,0.000,0.570,0.0000,0.0000,0.0000,0.0000,0.0000,0.0000,0
2026-04-17,14:52:34,12344,1,-0.1652,-0.0157,0.0332,0.9751,14.7275,1,15.0068,0,0,52.8943,-1.4971,14.7875,-0.1352,169.6819,0.000,0.000,0.566,0.0000,0.0000,0.0000,0.0000,0.0000,0.0000,0
2026-04-17,14:52:34,12379,1,-0.3252,-0.1115,0.0140,0.4118,14.7281,1,15.0068,0,0,52.9653,1.4135,14.8541,1.3611,169.6361,0.000,0.000,0.563,0.0000,0.0000,0.0000,0.0000,0.0000,0.0000,0
2026-04-17,14:52:34,12416,1,-0.4852,-0.0233,0.0135,0.3961,14.7284,1,15.0068,0,0,52.9586,0.1229,14.8527,0.1445,169.4667,0.000,0.000,0.560,0.0000,0.0000,0.0000,0.0000,0.0000,0.0000,0
2026-04-17,14:52:34,12452,1,-0.6452,0.0083,0.0160,0.4693,14.7284,1,15.0068,0,0,52.9796,1.6372,14.7831,-1.5784,169.4707,0.000,0.000,0.557,0.0000,0.0000,0.0000,0.0000,0.0000,0.0000,0
2026-04-17,14:52:34,12488,1,0.1316,-0.0316,0.0150,0.4413,14.7285,1,15.0068,0,0,53.0017,0.8540,14.6237,-3.8253,169.3283,0.000,0.000,0.554,0.0000,0.0000,0.0000,0.0000,0.0000,0.0000,0
2026-04-17,14:52:34,12523,1,0.1390,0.0539,0.0361,1.0617,14.7283,1,15.0068,0,0,53.0137,0.9542,14.5495,-2.6524,169.3369,0.000,0.000,0.550,0.0000,0.0000,0.0000,0.0000,0.0000,0.0000,0
2026-04-17,14:52:34,12559,1,-0.0210,0.0198,0.0419,1.2309,14.7279,1,15.0068,0,0,52.9658,-1.9141,14.5542,-0.9259,169.2619,0.000,0.000,0.547,0.0000,0.0000,0.0000,0.0000,0.0000,0.0000,0
2026-04-17,14:52:34,12595,1,-0.1810,-0.0120,0.0298,0.8773,14.7279,1,15.0068,0,0,52.9722,1.2701,14.6326,1.2717,169.2482,0.000,0.000,0.544,0.0000,0.0000,0.0000,0.0000,0.0000,0.0000,0
2026-04-17,14:52:34,12630,1,-0.3410,-0.0539,0.0127,0.3728,14.7282,1,15.0068,0,0,52.9761,-0.3838,14.6636,0.9934,169.2066,0.000,0.000,0.541,0.0000,0.0000,0.0000,0.0000,0.0000,0.0000,0
2026-04-17,14:52:34,12666,1,0.1158,-0.0068,0.0099,0.2919,14.7282,1,15.0068,0,0,53.0007,1.1458,14.6391,-0.5118,169.1760,0.000,0.000,0.538,0.0000,0.0000,0.0000,0.0000,0.0000,0.0000,0
2026-04-17,14:52:34,12704,1,0.1632,0.0646,0.0230,0.6753,14.7279,1,15.0068,0,0,52.9946,0.3237,14.6399,-0.3308,169.1878,0.000,0.000,0.535,0.0000,0.0000,0.0000,0.0000,0.0000,0.0000,0
2026-04-17,14:52:34,12740,1,0.1148,0.0929,0.0392,1.1530,14.7273,1,15.0068,0,0,52.9693,-0.0644,14.5885,-1.3059,169.1404,0.000,0.000,0.532,0.0000,0.0000,0.0000,0.0000,0.0000,0.0000,0
2026-04-17,14:52:34,12776,1,-0.0452,0.0836,0.0307,0.9017,14.7265,1,15.0068,0,0,52.9634,-0.4336,14.5182,-1.6617,169.1436,0.000,0.000,0.529,0.0000,0.0000,0.0000,0.0000,0.0000,0.0000,0
2026-04-17,14:52:34,12812,1,-0.2052,-0.0402,0.0203,0.5965,14.7265,1,15.0068,0,0,52.9823,-0.0084,14.5988,1.0931,169.0959,0.000,0.000,0.526,0.0000,0.0000,0.0000,0.0000,0.0000,0.0000,0
2026-04-17,14:52:34,12848,1,-0.3652,-0.0915,0.0278,0.8189,14.7274,1,15.0068,0,0,53.0175,1.9688,14.6588,1.4279,169.1042,0.000,0.000,0.522,0.0000,0.0000,0.0000,0.0000,0.0000,0.0000,0
2026-04-17,14:52:34,12884,1,-0.5252,-0.1157,0.0143,0.4200,14.7281,1,15.0068,0,0,52.9873,-1.0692,14.6769,0.6487,169.0812,0.000,0.000,0.519,0.0000,0.0000,0.0000,0.0000,0.0000,0.0000,0
2026-04-17,14:52:34,12920,1,0.1158,-0.0717,0.0103,0.3033,14.7283,1,15.0068,0,0,53.0151,0.4225,14.6459,-0.2407,169.1700,0.000,0.000,0.516,0.0000,0.0000,0.0000,0.0000,0.0000,0.0000,0
2026-04-17,14:52:34,12956,1,0.1790,0.0478,0.0327,0.9621,14.7283,1,15.0068,0,0,53.0093,-1.2135,14.6838,0.5500,169.2495,0.000,0.000,0.513,0.0000,0.0000,0.0000,0.0000,0.0000,0.0000,0
2026-04-17,14:52:34,12992,1,0.0190,0.0522,0.0414,1.2175,14.7277,1,15.0068,0,0,52.9358,-1.2674,14.7185,0.7548,169.2567,0.000,0.000,0.510,0.0000,0.0000,0.0000,0.0000,0.0000,0.0000,0
2026-04-17,14:52:34,13028,1,-0.1410,-0.0119,0.0327,0.9622,14.7276,1,15.0068,0,0,52.9766,0.5560,14.7204,0.0367,169.2166,0.000,0.000,0.506,0.0000,0.0000,0.0000,0.0000,0.0000,0.0000,0
2026-04-17,14:52:34,13064,1,-0.3010,-0.0598,0.0088,0.2578,14.7278,1,15.0068,0,0,52.9604,0.9609,14.7026,-0.3705,169.1723,0.000,0.000,0.503,0.0000,0.0000,0.0000,0.0000,0.0000,0.0000,0
2026-04-17,14:52:34,13100,1,-0.4610,0.0063,0.0144,0.4230,14.7278,1,15.0068,0,0,53.0055,1.0673,14.7402,0.5300,169.1463,0.000,0.000,0.500,0.0000,0.0000,0.0000,0.0000,0.0000,0.0000,0
2026-04-17,14:52:34,13136,1,0.1632,0.0817,0.0182,0.5359,14.7275,1,15.0068,0,0,52.9583,-1.4776,14.7951,1.1294,169.0874,0.000,0.000,0.497,0.0000,0.0000,0.0000,0.0000,0.0000,0.0000,0
2026-04-17,14:52:34,13171,1,0.2264,0.2300,0.0197,0.5798,14.7265,1,15.0068,0,0,53.0264,2.5721,14.8730,1.9718,169.1187,0.000,0.000,0.494,0.0000,0.0000,0.0000,0.0000,0.0000,0.0000,0
2026-04-17,14:52:34,13207,1,0.2896,0.2156,0.0157,0.4618,14.7242,1,15.0068,0,0,53.0067,-0.0156,15.0007,3.6012,169.0269,0.000,0.000,0.490,0.0000,0.0000,0.0000,0.0000,0.0000,0.0000,0
2026-04-17,14:52:35,13242,1,0.3528,0.2663,0.0191,0.5631,14.7222,1,15.0068,0,0,53.0631,1.8233,15.1889,4.9528,169.1201,0.000,0.000,0.487,0.0000,0.0000,0.0000,0.0000,0.0000,0.0000,0
2026-04-17,14:52:35,13277,1,0.3044,0.3493,0.0346,1.0163,14.7203,1,15.0068,0,0,53.0985,0.4537,15.2078,1.8601,168.9857,0.000,0.000,0.484,0.0000,0.0000,0.0000,0.0000,0.0000,0.0000,0
2026-04-17,14:52:35,13313,1,0.1444,0.1972,0.0341,1.0021,14.7182,1,15.0068,0,0,53.0746,1.2745,15.2830,2.3484,169.0760,0.000,0.000,0.481,0.0000,0.0000,0.0000,0.0000,0.0000,0.0000,0
2026-04-17,14:52:35,13349,1,-0.0156,0.0217,0.0394,1.1600,14.7174,1,15.0068,0,0,53.0479,-3.3809,15.3675,2.0549,168.9819,0.000,0.000,0.478,0.0000,0.0000,0.0000,0.0000,0.0000,0.0000,0
2026-04-17,14:52:35,13384,1,-0.1756,-0.0229,0.0289,0.8513,14.7175,1,15.0068,0,0,52.9514,-0.8709,15.3722,0.9422,169.0353,0.000,0.000,0.474,0.0000,0.0000,0.0000,0.0000,0.0000,0.0000,0
2026-04-17,14:52:35,13420,1,-0.3356,-0.1113,0.0109,0.3195,14.7180,1,15.0068,0,0,53.0659,2.3262,15.4666,2.4399,168.9624,0.000,0.000,0.471,0.0000,0.0000,0.0000,0.0000,0.0000,0.0000,0
2026-04-17,14:52:35,13455,1,-0.4956,-0.0768,0.0137,0.4034,14.7183,1,15.0068,0,0,52.9556,-3.5151,15.6417,4.6492,168.9413,0.000,0.000,0.468,0.0000,0.0000,0.0000,0.0000,0.0000,0.0000,0
2026-04-17,14:52:35,13496,1,-0.6156,-0.0927,0.0211,0.6205,14.7191,1,15.0068,0,0,52.9768,0.0371,15.7907,4.9670,168.9231,0.000,0.000,0.466,0.0000,0.0000,0.0000,0.0000,0.0000,0.0000,0
2026-04-17,14:52:35,13532,1,-0.7756,-0.1498,0.0230,0.6777,14.7203,1,15.0068,0,0,52.9261,-1.8152,15.9823,5.3439,168.9153,0.000,0.000,0.462,0.0000,0.0000,0.0000,0.0000,0.0000,0.0000,0
2026-04-17,14:52:35,13568,1,-0.9356,-0.0515,0.0252,0.7413,14.7212,1,15.0068,0,0,52.9912,1.0997,16.0623,3.2284,169.0979,0.000,0.000,0.459,0.0000,0.0000,0.0000,0.0000,0.0000,0.0000,0
2026-04-17,14:52:35,13604,1,-1.0956,-0.2211,0.0197,0.5795,14.7222,1,15.0068,0,0,52.9290,-1.5643,16.0889,1.3961,169.0278,0.000,0.000,0.456,0.0000,0.0000,0.0000,0.0000,0.0000,0.0000,0
2026-04-17,14:52:35,13640,1,0.1316,-0.0346,0.0157,0.4620,14.7231,1,15.0068,0,0,53.0282,2.8335,15.9532,-2.7694,169.1449,0.000,0.000,0.453,0.0000,0.0000,0.0000,0.0000,0.0000,0.0000,0
2026-04-17,14:52:35,13675,1,0.1948,0.0627,0.0296,0.8694,14.7227,1,15.0068,0,0,52.9511,-1.9809,15.8126,-3.8097,168.9960,0.000,0.000,0.450,0.0000,0.0000,0.0000,0.0000,0.0000,0.0000,0
2026-04-17,14:52:35,13711,1,0.0348,0.0628,0.0395,1.1625,14.7221,1,15.0068,0,0,52.9968,1.6921,15.7494,-2.5962,169.1162,0.000,0.000,0.446,0.0000,0.0000,0.0000,0.0000,0.0000,0.0000,0
2026-04-17,14:52:35,13747,1,-0.1252,0.0024,0.0318,0.9354,14.7218,1,15.0068,0,0,52.9522,-1.6016,15.7014,-2.0412,168.9515,0.000,0.000,0.443,0.0000,0.0000,0.0000,0.0000,0.0000,0.0000,0
2026-04-17,14:52:35,13783,1,-0.2852,-0.1107,0.0186,0.5482,14.7222,1,15.0068,0,0,53.0073,1.7087,15.6074,-2.5877,169.0733,0.000,0.000,0.440,0.0000,0.0000,0.0000,0.0000,0.0000,0.0000,0
2026-04-17,14:52:35,13818,1,-0.4452,0.0142,0.0136,0.4011,14.7226,1,15.0068,0,0,53.0057,-0.2326,15.5401,-2.5018,168.9915,0.000,0.000,0.437,0.0000,0.0000,0.0000,0.0000,0.0000,0.0000,0
2026-04-17,14:52:35,13854,1,-0.6052,-0.0051,0.0157,0.4623,14.7226,1,15.0068,0,0,52.9852,0.3035,15.3828,-4.2931,169.0340,0.000,0.000,0.434,0.0000,0.0000,0.0000,0.0000,0.0000,0.0000,0
2026-04-17,14:52:35,13889,1,0.1316,-0.0024,0.0129,0.3805,14.7226,1,15.0068,0,0,52.9729,-0.0478,15.2246,-4.6534,169.0353,0.000,0.000,0.430,0.0000,0.0000,0.0000,0.0000,0.0000,0.0000,0
2026-04-17,14:52:35,13925,1,0.1948,0.0625,0.0302,0.8872,14.7222,1,15.0068,0,0,53.0388,2.4611,15.1091,-4.2542,168.9382,0.000,0.000,0.427,0.0000,0.0000,0.0000,0.0000,0.0000,0.0000,0
2026-04-17,14:52:35,13961,1,0.0348,0.1134,0.0341,1.0017,14.7214,1,15.0068,0,0,53.0376,-0.4744,15.0252,-3.1316,169.0406,0.000,0.000,0.424,0.0000,0.0000,0.0000,0.0000,0.0000,0.0000,0
2026-04-17,14:52:35,13997,1,-0.1252,-0.0035,0.0245,0.7200,14.7210,1,15.0068,0,0,53.0034,-0.1901,14.9633,-2.4549,168.9608,0.000,0.000,0.421,0.0000,0.0000,0.0000,0.0000,0.0000,0.0000,0
2026-04-17,14:52:35,14033,1,-0.2852,-0.1150,0.0183,0.5379,14.7214,1,15.0068,0,0,53.0652,2.0175,14.9636,-0.7678,169.0446,0.000,0.000,0.418,0.0000,0.0000,0.0000,0.0000,0.0000,0.0000,0
2026-04-17,14:52:35,14068,1,-0.4452,-0.1865,0.0191,0.5613,14.7222,1,15.0068,0,0,53.0277,-1.2090,15.0052,0.4317,168.9354,0.000,0.000,0.414,0.0000,0.0000,0.0000,0.0000,0.0000,0.0000,0
2026-04-17,14:52:35,14104,1,-0.6052,-0.0608,0.0180,0.5302,14.7230,1,15.0068,0,0,53.0578,1.2103,15.0231,0.3519,169.0425,0.000,0.000,0.411,0.0000,0.0000,0.0000,0.0000,0.0000,0.0000,0
2026-04-17,14:52:35,14140,1,0.1632,0.0521,0.0219,0.6429,14.7228,1,15.0068,0,0,53.0167,-1.8571,15.0190,0.0615,168.9476,0.000,0.000,0.408,0.0000,0.0000,0.0000,0.0000,0.0000,0.0000,0
2026-04-17,14:52:35,14176,1,0.1148,0.0872,0.0378,1.1103,14.7224,1,15.0068,0,0,53.0161,1.0056,14.9805,-0.9758,169.0324,0.000,0.000,0.405,0.0000,0.0000,0.0000,0.0000,0.0000,0.0000,0
2026-04-17,14:52:35,14211,1,-0.0452,0.0290,0.0405,1.1905,14.7220,1,15.0068,0,0,52.9801,-2.1016,14.9136,-1.6818,168.9799,0.000,0.000,0.402,0.0000,0.0000,0.0000,0.0000,0.0000,0.0000,0
2026-04-17,14:52:36,14246,1,-0.2052,-0.0291,0.0287,0.8438,14.7221,1,15.0068,0,0,53.0182,1.9610,14.8219,-2.4857,169.0209,0.000,0.000,0.398,0.0000,0.0000,0.0000,0.0000,0.0000,0.0000,0
2026-04-17,14:52:36,14287,1,-0.3252,-0.1141,0.0106,0.3117,14.7230,1,15.0068,0,0,53.0171,0.4833,14.8085,-1.8957,168.9667,0.000,0.000,0.396,0.0000,0.0000,0.0000,0.0000,0.0000,0.0000,0
2026-04-17,14:52:36,14322,1,0.1158,-0.0039,0.0121,0.3561,14.7232,1,15.0068,0,0,53.0688,1.9997,14.8170,-0.3837,168.9838,0.000,0.000,0.393,0.0000,0.0000,0.0000,0.0000,0.0000,0.0000,0
2026-04-17,14:52:36,14358,1,0.1790,0.0582,0.0266,0.7829,14.7230,1,15.0068,0,0,53.0047,-2.7292,14.8825,1.0736,168.9571,0.000,0.000,0.390,0.0000,0.0000,0.0000,0.0000,0.0000,0.0000,0
2026-04-17,14:52:36,14393,1,0.0748,0.0964,0.0358,1.0529,14.7223,1,15.0068,0,0,53.0162,1.3897,14.8801,0.0389,168.9540,0.000,0.000,0.386,0.0000,0.0000,0.0000,0.0000,0.0000,0.0000,0
2026-04-17,14:52:36,14428,1,-0.0852,0.0077,0.0358,1.0527,14.7220,1,15.0068,0,0,53.0432,-0.0967,14.8110,-1.5013,168.9687,0.000,0.000,0.383,0.0000,0.0000,0.0000,0.0000,0.0000,0.0000,0
2026-04-17,14:52:36,14464,1,-0.2452,-0.0764,0.0218,0.6424,14.7223,1,15.0068,0,0,53.0148,-0.1714,14.7494,-1.8549,168.9513,0.000,0.000,0.380,0.0000,0.0000,0.0000,0.0000,0.0000,0.0000,0
2026-04-17,14:52:36,14500,1,-0.4052,0.0110,0.0170,0.4989,14.7229,1,15.0068,0,0,53.0555,0.6100,14.7078,-1.4308,169.0112,0.000,0.000,0.377,0.0000,0.0000,0.0000,0.0000,0.0000,0.0000,0
2026-04-17,14:52:36,14536,1,0.1158,0.0143,0.0121,0.3573,14.7229,1,15.0068,0,0,52.9669,-2.2360,14.7082,-0.6505,168.9815,0.000,0.000,0.374,0.0000,0.0000,0.0000,0.0000,0.0000,0.0000,0
2026-04-17,14:52:36,14571,1,0.1790,0.0775,0.0244,0.7169,14.7225,1,15.0068,0,0,53.0446,2.4346,14.6839,-0.4334,169.0190,0.000,0.000,0.370,0.0000,0.0000,0.0000,0.0000,0.0000,0.0000,0
2026-04-17,14:52:36,14606,1,0.0748,0.1049,0.0338,0.9933,14.7218,1,15.0068,0,0,53.0175,-0.6103,14.7347,0.8040,168.9338,0.000,0.000,0.367,0.0000,0.0000,0.0000,0.0000,0.0000,0.0000,0
2026-04-17,14:52:36,14642,1,-0.0852,0.0419,0.0259,0.7630,14.7212,1,15.0068,0,0,53.0315,0.3405,14.7757,1.2430,169.0245,0.000,0.000,0.364,0.0000,0.0000,0.0000,0.0000,0.0000,0.0000,0
2026-04-17,14:52:36,14677,1,-0.2452,-0.0803,0.0159,0.4669,14.7215,1,15.0068,0,0,53.0163,-0.5273,14.9741,4.8209,168.9230,0.000,0.000,0.361,0.0000,0.0000,0.0000,0.0000,0.0000,0.0000,0
2026-04-17,14:52:36,14713,1,-0.4052,-0.0161,0.0181,0.5316,14.7220,1,15.0068,0,0,53.0674,1.5280,15.1681,5.3144,168.9686,0.000,0.000,0.358,0.0000,0.0000,0.0000,0.0000,0.0000,0.0000,0
2026-04-17,14:52:36,14749,1,-0.5652,-0.0109,0.0146,0.4308,14.7225,1,15.0068,0,0,53.0422,-0.7737,15.2324,2.9784,168.9196,0.000,0.000,0.354,0.0000,0.0000,0.0000,0.0000,0.0000,0.0000,0
2026-04-17,14:52:36,14784,1,-0.7252,-0.0174,0.0132,0.3872,14.7228,1,15.0068,0,0,53.0199,-0.8692,15.1928,0.1359,168.9302,0.000,0.000,0.351,0.0000,0.0000,0.0000,0.0000,0.0000,0.0000,0
2026-04-17,14:52:36,14820,1,0.1632,0.0313,0.0267,0.7864,14.7229,1,15.0068,0,0,53.0332,0.9277,15.2085,0.7254,168.9347,0.000,0.000,0.348,0.0000,0.0000,0.0000,0.0000,0.0000,0.0000,0
2026-04-17,14:52:36,14856,1,0.0590,0.0691,0.0392,1.1519,14.7224,1,15.0068,0,0,53.0298,-0.0117,15.3201,2.5845,168.9147,0.000,0.000,0.345,0.0000,0.0000,0.0000,0.0000,0.0000,0.0000,0
2026-04-17,14:52:36,14892,1,-0.1010,-0.0035,0.0375,1.1024,14.7223,1,15.0068,0,0,53.0390,0.4497,15.3879,2.0848,168.9477,0.000,0.000,0.342,0.0000,0.0000,0.0000,0.0000,0.0000,0.0000,0
2026-04-17,14:52:36,14927,1,-0.2610,-0.0881,0.0245,0.7202,14.7226,1,15.0068,0,0,53.0369,-0.5699,15.3853,0.5117,168.9044,0.000,0.000,0.338,0.0000,0.0000,0.0000,0.0000,0.0000,0.0000,0
2026-04-17,14:52:36,14962,1,-0.4210,-0.0748,0.0242,0.7132,14.7235,1,15.0068,0,0,53.0253,-0.0843,15.3569,-0.2896,168.9845,0.000,0.000,0.335,0.0000,0.0000,0.0000,0.0000,0.0000,0.0000,0
2026-04-17,14:52:36,14997,1,-0.5810,-0.1067,0.0163,0.4783,14.7238,1,15.0068,0,0,53.0052,-1.1400,15.3080,-1.4629,168.9347,0.000,0.000,0.332,0.0000,0.0000,0.0000,0.0000,0.0000,0.0000,0
2026-04-17,14:52:36,15033,1,-0.7410,-0.0527,0.0186,0.5476,14.7242,1,15.0068,0,0,52.9868,0.3999,15.2118,-2.3811,169.0008,0.000,0.000,0.329,0.0000,0.0000,0.0000,0.0000,0.0000,0.0000,0
2026-04-17,14:52:36,15066,1,-0.8210,-0.0166,0.0113,0.3317,14.7243,1,15.0068,0,0,52.9946,0.3729,15.2180,-1.8145,169.0137,0.000,0.000,0.327,0.0000,0.0000,0.0000,0.0000,0.0000,0.0000,0
2026-04-17,14:52:36,15102,1,0.1632,0.0423,0.0248,0.7284,14.7245,1,15.0068,0,0,52.9954,0.8891,15.2569,0.2981,169.0257,0.000,0.000,0.324,0.0000,0.0000,0.0000,0.0000,0.0000,0.0000,0
2026-04-17,14:52:36,15138,1,0.1148,0.1296,0.0358,1.0543,14.7238,1,15.0068,0,0,53.0125,0.1333,15.3772,2.4928,168.9895,0.000,0.000,0.321,0.0000,0.0000,0.0000,0.0000,0.0000,0.0000,0
2026-04-17,14:52:36,15174,1,-0.0452,0.0654,0.0281,0.8251,14.7229,1,15.0068,0,0,52.9673,-1.2269,15.4688,2.4988,168.9681,0.000,0.000,0.318,0.0000,0.0000,0.0000,0.0000,0.0000,0.0000,0
2026-04-17,14:52:36,15209,1,-0.2052,-0.0166,0.0150,0.4417,14.7229,1,15.0068,0,0,53.0354,1.9200,15.4450,0.0821,169.0186,0.000,0.000,0.314,0.0000,0.0000,0.0000,0.0000,0.0000,0.0000,0
2026-04-17,14:52:37,15244,1,-0.3652,-0.0145,0.0127,0.3730,14.7231,1,15.0068,0,0,53.0615,0.9408,15.3888,-1.1245,168.9588,0.000,0.000,0.311,0.0000,0.0000,0.0000,0.0000,0.0000,0.0000,0
2026-04-17,14:52:37,15280,1,-0.5252,-0.0352,0.0183,0.5372,14.7232,1,15.0068,0,0,53.0216,-0.4170,15.3887,-0.3727,169.0383,0.000,0.000,0.308,0.0000,0.0000,0.0000,0.0000,0.0000,0.0000,0
2026-04-17,14:52:37,15315,1,0.1474,0.0485,0.0217,0.6397,14.7233,1,15.0068,0,0,53.0246,0.2740,15.4280,0.7254,168.9574,0.000,0.000,0.305,0.0000,0.0000,0.0000,0.0000,0.0000,0.0000,0
2026-04-17,14:52:37,15351,1,0.1548,0.0883,0.0340,0.9986,14.7228,1,15.0068,0,0,53.0305,-0.0376,15.4714,0.9765,168.9542,0.000,0.000,0.302,0.0000,0.0000,0.0000,0.0000,0.0000,0.0000,0
2026-04-17,14:52:37,15386,1,-0.0052,0.0249,0.0440,1.2927,14.7223,1,15.0068,0,0,53.0088,-1.0984,15.5233,1.3772,168.9395,0.000,0.000,0.298,0.0000,0.0000,0.0000,0.0000,0.0000,0.0000,0
2026-04-17,14:52:37,15421,1,-0.1652,-0.0180,0.0337,0.9909,14.7223,1,15.0068,0,0,53.0350,0.3693,15.4594,-0.9793,168.8959,0.000,0.000,0.295,0.0000,0.0000,0.0000,0.0000,0.0000,0.0000,0
2026-04-17,14:52:37,15457,1,-0.3252,-0.1031,0.0155,0.4547,14.7228,1,15.0068,0,0,53.0304,0.2612,15.2753,-4.3597,168.8563,0.000,0.000,0.292,0.0000,0.0000,0.0000,0.0000,0.0000,0.0000,0
2026-04-17,14:52:37,15493,1,-0.4852,-0.0346,0.0172,0.5073,14.7233,1,15.0068,0,0,53.0818,1.3713,15.1052,-4.7343,168.7089,0.000,0.000,0.289,0.0000,0.0000,0.0000,0.0000,0.0000,0.0000,0
2026-04-17,14:52:37,15528,1,-0.6452,-0.0763,0.0201,0.5903,14.7239,1,15.0068,0,0,53.0382,-1.0791,15.0546,-2.5550,168.6659,0.000,0.000,0.286,0.0000,0.0000,0.0000,0.0000,0.0000,0.0000,0
2026-04-17,14:52:37,15564,1,-0.8052,-0.1397,0.0223,0.6561,14.7252,1,15.0068,0,0,53.0832,1.7843,15.0327,-0.8865,168.4664,0.000,0.000,0.282,0.0000,0.0000,0.0000,0.0000,0.0000,0.0000,0
2026-04-17,14:52:37,15600,1,-0.9652,0.0011,0.0164,0.4822,14.7254,1,15.0068,0,0,53.1080,-0.1659,15.1034,1.7051,168.0394,0.000,0.000,0.279,0.0000,0.0000,0.0000,0.0000,0.0000,0.0000,0
2026-04-17,14:52:37,15636,1,0.1474,0.0415,0.0194,0.5704,14.7255,1,15.0068,0,0,53.1420,2.2511,15.0678,0.4310,167.7860,0.000,0.000,0.276,0.0000,0.0000,0.0000,0.0000,0.0000,0.0000,0
2026-04-17,14:52:37,15672,1,0.1548,0.0815,0.0339,0.9982,14.7250,1,15.0068,0,0,53.1791,0.7045,15.0450,0.4433,167.7577,0.000,0.000,0.273,0.0000,0.0000,0.0000,0.0000,0.0000,0.0000,0
2026-04-17,14:52:37,15708,1,-0.0052,0.0893,0.0334,0.9809,14.7242,1,15.0068,0,0,53.1605,-0.3311,15.0494,0.6826,167.9601,0.000,0.000,0.270,0.0000,0.0000,0.0000,0.0000,0.0000,0.0000,0
2026-04-17,14:52:37,15745,1,-0.1652,-0.0236,0.0205,0.6036,14.7239,1,15.0068,0,0,53.1956,0.6169,15.1431,2.3336,168.1252,0.000,0.000,0.266,0.0000,0.0000,0.0000,0.0000,0.0000,0.0000,0
2026-04-17,14:52:37,15781,1,-0.3252,0.0057,0.0173,0.5103,14.7241,1,15.0068,0,0,53.2111,0.3619,15.2704,3.0189,168.2506,0.000,0.000,0.263,0.0000,0.0000,0.0000,0.0000,0.0000,0.0000,0
2026-04-17,14:52:37,15817,1,0.1474,0.0272,0.0235,0.6905,14.7243,1,15.0068,0,0,53.1972,-0.5073,15.2178,-0.3125,168.2983,0.000,0.000,0.260,0.0000,0.0000,0.0000,0.0000,0.0000,0.0000,0
2026-04-17,14:52:37,15853,1,0.1790,0.0809,0.0275,0.8089,14.7239,1,15.0068,0,0,53.2017,-0.2220,15.1592,-0.6317,168.2254,0.000,0.000,0.258,0.0000,0.0000,0.0000,0.0000,0.0000,0.0000,0
2026-04-17,14:52:37,15894,1,0.0348,0.0673,0.0327,0.9629,14.7223,1,15.0068,0,0,53.1538,-1.4973,14.8502,-5.8393,168.0746,0.000,0.000,0.254,0.0000,0.0000,0.0000,0.0000,0.0000,0.0000,0
2026-04-17,14:52:37,15929,1,-0.1252,0.0024,0.0271,0.7972,14.7222,1,15.0068,0,0,53.2000,1.4657,14.6308,-6.3223,168.3600,0.000,0.000,0.251,0.0000,0.0000,0.0000,0.0000,0.0000,0.0000,0
2026-04-17,14:52:37,15965,1,-0.2852,-0.0631,0.0128,0.3778,14.7225,1,15.0068,0,0,53.2134,0.5471,14.5181,-4.5531,168.3621,0.000,0.000,0.248,0.0000,0.0000,0.0000,0.0000,0.0000,0.0000,0
2026-04-17,14:52:37,16001,1,-0.4452,-0.0414,0.0141,0.4154,14.7226,1,15.0068,0,0,53.2013,0.0379,14.3978,-4.3404,168.1359,0.000,0.000,0.245,0.0000,0.0000,0.0000,0.0000,0.0000,0.0000,0
2026-04-17,14:52:37,16036,1,-0.6052,-0.0550,0.0156,0.4598,14.7228,1,15.0068,0,0,53.2333,0.3881,14.0542,-8.6381,167.3173,0.000,0.000,0.242,0.0000,0.0000,0.0000,0.0000,0.0000,0.0000,0
2026-04-17,14:52:37,16072,1,-0.7652,-0.0654,0.0175,0.5147,14.7233,1,15.0068,0,0,53.2899,1.0878,13.3301,-16.4556,165.7417,0.000,0.000,0.238,0.0000,0.0000,0.0000,0.0000,0.0000,0.0000,0
2026-04-17,14:52:37,16108,1,-0.9252,-0.3045,0.0278,0.8177,14.7250,1,15.0068,0,0,53.4002,3.0969,12.2036,-25.9865,163.7904,0.000,0.000,0.235,0.0000,0.0000,0.0000,0.0000,0.0000,0.0000,0
2026-04-17,14:52:37,16143,1,-1.0852,-0.3816,0.0391,1.1493,14.7275,1,15.0068,0,0,53.5448,3.9691,11.0860,-28.1256,162.4426,0.000,0.000,0.232,0.0000,0.0000,0.0000,0.0000,0.0000,0.0000,0
2026-04-17,14:52:37,16179,1,-1.2452,-0.1609,0.0180,0.5290,14.7284,1,15.0068,0,0,53.6677,0.4691,10.1798,-24.3324,162.0277,0.000,0.000,0.238,0.0000,0.0000,0.0000,0.0000,0.0000,0.0000,0
2026-04-17,14:52:37,16215,1,-1.4052,-0.0131,0.0200,0.5876,14.7293,1,15.0068,0,0,53.7308,2.9395,9.6673,-16.2458,162.7438,0.000,0.000,0.270,0.0000,0.0000,0.0000,0.0000,0.0000,0.0000,0
2026-04-17,14:52:38,16251,1,-1.5652,0.0230,0.0176,0.5176,14.7296,1,15.0068,0,0,53.7729,1.0342,9.5690,-6.8704,164.1304,0.000,0.000,0.293,0.0000,0.0000,0.0000,0.0000,0.0000,0.0000,0
2026-04-17,14:52:38,16287,1,0.1474,0.0492,0.0194,0.5704,14.7297,1,15.0068,0,0,53.7586,-0.2459,9.5466,-3.3683,164.7759,0.000,0.000,0.316,0.0000,0.0000,0.0000,0.0000,0.0000,0.0000,0
2026-04-17,14:52:38,16322,1,0.2106,0.1395,0.0268,0.7877,14.7291,1,15.0068,0,0,53.7681,1.1015,9.3597,-5.4215,165.3156,0.000,0.000,0.348,0.0000,0.0000,0.0000,0.0000,0.0000,0.0000,0
2026-04-17,14:52:38,16357,1,0.1064,0.1735,0.0275,0.8101,14.7276,1,15.0068,0,0,53.7128,-2.4463,9.1067,-7.1597,165.8622,0.000,0.000,0.380,0.0000,0.0000,0.0000,0.0000,0.0000,0.0000,0
2026-04-17,14:52:38,16393,1,-0.0536,0.0414,0.0295,0.8681,14.7271,1,15.0068,0,0,53.6970,0.6766,8.9582,-5.4326,166.2622,0.000,0.000,0.412,0.0000,0.0000,0.0000,0.0000,0.0000,0.0000,0
2026-04-17,14:52:38,16429,1,-0.2136,-0.0213,0.0120,0.3543,14.7271,1,15.0068,0,0,53.7308,-0.1440,8.9018,-3.0574,166.5884,0.000,0.000,0.444,0.0000,0.0000,0.0000,0.0000,0.0000,0.0000,0
2026-04-17,14:52:38,16465,1,0.1158,-0.0004,0.0126,0.3718,14.7271,1,15.0068,0,0,53.6761,-0.6484,8.8807,-1.6399,166.9405,0.000,0.000,0.467,0.0000,0.0000,0.0000,0.0000,0.0000,0.0000,0
2026-04-17,14:52:38,16501,1,0.1790,0.1312,0.0211,0.6216,14.7267,1,15.0068,0,0,53.7115,0.8172,8.8683,-0.7934,167.1535,0.000,0.000,0.499,0.0000,0.0000,0.0000,0.0000,0.0000,0.0000,0
2026-04-17,14:52:38,16536,1,0.2422,0.2594,0.0119,0.3500,14.7250,1,15.0068,0,0,53.6490,-2.3518,8.8808,0.0328,167.4085,0.000,0.000,0.522,0.0000,0.0000,0.0000,0.0000,0.0000,0.0000,0
2026-04-17,14:52:38,16572,1,0.3054,0.3069,0.0146,0.4303,14.7232,1,15.0068,0,0,53.7086,2.5090,8.9727,1.7055,167.6724,0.000,0.000,0.519,0.0000,0.0000,0.0000,0.0000,0.0000,0.0000,0
2026-04-17,14:52:38,16608,1,0.3686,0.2242,0.0320,0.9421,14.7214,1,15.0068,0,0,53.6747,-1.3367,8.9936,0.7586,167.8483,0.000,0.000,0.516,0.0000,0.0000,0.0000,0.0000,0.0000,0.0000,0
2026-04-17,14:52:38,16649,1,0.2486,0.3735,0.0187,0.5504,14.7180,1,15.0068,0,0,53.6644,-0.4984,9.0253,0.9229,167.8961,0.000,0.000,0.514,0.0000,0.0000,0.0000,0.0000,0.0000,0.0000,0
2026-04-17,14:52:38,16684,1,0.1158,0.3126,0.0036,0.1074,14.7157,1,15.0068,0,0,53.6681,-0.1037,9.0766,1.2387,168.0142,0.000,0.000,0.510,0.0000,0.0000,0.0000,0.0000,0.0000,0.0000,0
2026-04-17,14:52:38,16720,1,0.1790,-0.0281,0.0183,0.5396,14.7147,1,15.0068,0,0,53.6717,0.7623,9.1106,1.1800,168.2223,0.000,0.000,0.507,0.0000,0.0000,0.0000,0.0000,0.0000,0.0000,0
2026-04-17,14:52:38,16755,1,0.2422,0.1764,0.0171,0.5032,14.7136,1,15.0068,0,0,53.7049,0.4842,9.1814,2.0075,168.1584,0.000,0.000,0.504,0.0000,0.0000,0.0000,0.0000,0.0000,0.0000,0
2026-04-17,14:52:38,16791,1,0.3054,0.4109,0.0010,0.0284,14.7111,1,15.0068,0,0,53.6675,0.0191,9.3151,3.4856,168.1989,0.000,0.000,0.501,0.0000,0.0000,0.0000,0.0000,0.0000,0.0000,0
2026-04-17,14:52:38,16826,1,0.3686,0.0686,0.0297,0.8723,14.7094,1,15.0068,0,0,53.6693,1.8148,9.3369,1.2680,168.2557,0.000,0.000,0.498,0.0000,0.0000,0.0000,0.0000,0.0000,0.0000,0
2026-04-17,14:52:38,16861,1,0.3760,0.3653,0.0287,0.8445,14.7071,1,15.0068,0,0,53.7542,1.5098,9.1955,-2.4049,167.9834,0.000,0.000,0.494,0.0000,0.0000,0.0000,0.0000,0.0000,0.0000,0
2026-04-17,14:52:38,16897,1,0.2160,0.3272,0.0339,0.9980,14.7048,1,15.0068,0,0,53.6787,-1.7489,8.9071,-6.4312,167.3064,0.000,0.000,0.491,0.0000,0.0000,0.0000,0.0000,0.0000,0.0000,0
2026-04-17,14:52:38,16933,1,0.0560,0.1348,0.0368,1.0823,14.7034,1,15.0068,0,0,53.7853,3.2667,8.3753,-11.7968,166.1058,0.000,0.000,0.488,0.0000,0.0000,0.0000,0.0000,0.0000,0.0000,0
2026-04-17,14:52:38,16968,1,-0.1040,-0.0112,0.0325,0.9557,14.7030,1,15.0068,0,0,53.8971,1.8991,7.5995,-18.6672,164.6850,0.000,0.000,0.485,0.0000,0.0000,0.0000,0.0000,0.0000,0.0000,0
2026-04-17,14:52:38,17003,1,-0.2640,-0.1212,0.0225,0.6606,14.7034,1,15.0068,0,0,53.9887,2.8898,6.5327,-25.9117,163.2404,0.000,0.000,0.482,0.0000,0.0000,0.0000,0.0000,0.0000,0.0000,0
2026-04-17,14:52:38,17038,1,-0.4240,-0.2157,0.0184,0.5415,14.7051,1,15.0068,0,0,54.1504,4.2412,5.5819,-25.3920,162.5950,0.000,0.000,0.478,0.0000,0.0000,0.0000,0.0000,0.0000,0.0000,0
2026-04-17,14:52:38,17074,1,-0.5840,-0.0537,0.0212,0.6230,14.7061,1,15.0068,0,0,54.2671,2.5636,4.9417,-18.4944,162.7559,0.000,0.000,0.510,0.0000,0.0000,0.0000,0.0000,0.0000,0.0000,0
2026-04-17,14:52:38,17110,1,-0.7440,-0.1630,0.0219,0.6445,14.7074,1,15.0068,0,0,54.3039,1.8608,4.9120,-4.9214,163.6838,0.000,0.000,0.542,0.0000,0.0000,0.0000,0.0000,0.0000,0.0000,0
2026-04-17,14:52:38,17145,1,-0.9040,-0.0050,0.0179,0.5251,14.7081,1,15.0068,0,0,54.3526,1.1725,5.2228,4.8201,164.7490,0.000,0.000,0.566,0.0000,0.0000,0.0000,0.0000,0.0000,0.0000,0
2026-04-17,14:52:38,17181,1,0.1474,0.0137,0.0264,0.7779,14.7085,1,15.0068,0,0,54.2776,-1.4698,5.3157,3.1495,165.2515,0.000,0.000,0.598,0.0000,0.0000,0.0000,0.0000,0.0000,0.0000,0
2026-04-17,14:52:38,17217,1,0.0432,0.0784,0.0376,1.1059,14.7081,1,15.0068,0,0,54.2876,-0.3263,5.2678,-0.1012,165.8371,0.000,0.000,0.630,0.0000,0.0000,0.0000,0.0000,0.0000,0.0000,0
2026-04-17,14:52:39,17252,1,-0.1168,0.0135,0.0338,0.9938,14.7080,1,15.0068,0,0,54.2284,-1.8760,5.1603,-2.3514,166.2010,0.000,0.000,0.662,0.0000,0.0000,0.0000,0.0000,0.0000,0.0000,0
2026-04-17,14:52:39,17288,1,-0.2768,-0.0807,0.0151,0.4447,14.7083,1,15.0068,0,0,54.2359,0.5946,5.0777,-2.4910,166.6479,0.000,0.000,0.694,0.0000,0.0000,0.0000,0.0000,0.0000,0.0000,0
2026-04-17,14:52:39,17324,1,-0.4368,-0.0245,0.0148,0.4346,14.7085,1,15.0068,0,0,54.2169,-0.6967,5.0296,-1.9626,166.8569,0.000,0.000,0.726,0.0000,0.0000,0.0000,0.0000,0.0000,0.0000,0
2026-04-17,14:52:39,17359,1,0.1158,0.0076,0.0139,0.4075,14.7086,1,15.0068,0,0,54.2049,0.2243,4.8818,-4.0333,167.2104,0.000,0.000,0.722,0.0000,0.0000,0.0000,0.0000,0.0000,0.0000,0
2026-04-17,14:52:39,17395,1,0.1790,0.0915,0.0256,0.7520,14.7083,1,15.0068,0,0,54.1932,-0.3917,4.7179,-4.6144,167.3428,0.000,0.000,0.719,0.0000,0.0000,0.0000,0.0000,0.0000,0.0000,0
2026-04-17,14:52:39,17428,1,0.2106,0.1416,0.0284,0.8353,14.7077,1,15.0068,0,0,54.1805,-0.4362,4.7060,-3.6915,167.3968,0.000,0.000,0.718,0.0000,0.0000,0.0000,0.0000,0.0000,0.0000,0
2026-04-17,14:52:39,17464,1,0.0506,0.1081,0.0354,1.0416,14.7063,1,15.0068,0,0,54.1881,-0.1998,4.6608,-2.2748,167.5722,0.000,0.000,0.714,0.0000,0.0000,0.0000,0.0000,0.0000,0.0000,0
2026-04-17,14:52:39,17499,1,-0.1094,0.0109,0.0264,0.7768,14.7058,1,15.0068,0,0,54.2103,1.2061,4.6720,-0.6065,167.7318,0.000,0.000,0.711,0.0000,0.0000,0.0000,0.0000,0.0000,0.0000,0
2026-04-17,14:52:39,17535,1,-0.2694,-0.1198,0.0154,0.4535,14.7063,1,15.0068,0,0,54.1974,-0.7730,4.6777,-0.0900,167.8906,0.000,0.000,0.708,0.0000,0.0000,0.0000,0.0000,0.0000,0.0000,0
2026-04-17,14:52:39,17571,1,-0.4294,-0.0923,0.0179,0.5257,14.7069,1,15.0068,0,0,54.2128,0.3996,4.6953,0.4591,167.8735,0.000,0.000,0.705,0.0000,0.0000,0.0000,0.0000,0.0000,0.0000,0
2026-04-17,14:52:39,17607,1,-0.5894,-0.0559,0.0138,0.4049,14.7077,1,15.0068,0,0,54.2173,-0.4593,4.7698,1.8656,167.8684,0.000,0.000,0.702,0.0000,0.0000,0.0000,0.0000,0.0000,0.0000,0
2026-04-17,14:52:39,17643,1,-0.7494,-0.0307,0.0143,0.4207,14.7083,1,15.0068,0,0,54.2232,0.2529,4.7995,1.0848,167.8112,0.000,0.000,0.698,0.0000,0.0000,0.0000,0.0000,0.0000,0.0000,0
2026-04-17,14:52:39,17678,1,-0.9094,-0.0366,0.0139,0.4100,14.7086,1,15.0068,0,0,54.2077,-0.9245,4.7418,-0.5771,167.8533,0.000,0.000,0.695,0.0000,0.0000,0.0000,0.0000,0.0000,0.0000,0
2026-04-17,14:52:39,17714,1,0.1632,0.0647,0.0246,0.7241,14.7085,1,15.0068,0,0,54.2285,1.0852,4.7870,0.9971,167.9689,0.000,0.000,0.692,0.0000,0.0000,0.0000,0.0000,0.0000,0.0000,0
2026-04-17,14:52:39,17749,1,0.1148,0.1445,0.0322,0.9468,14.7077,1,15.0068,0,0,54.2524,0.6201,4.7890,0.1958,168.1028,0.000,0.000,0.689,0.0000,0.0000,0.0000,0.0000,0.0000,0.0000,0
2026-04-17,14:52:39,17784,1,-0.0452,0.0102,0.0323,0.9488,14.7071,1,15.0068,0,0,54.2066,-1.2017,4.7161,-1.5062,168.1643,0.000,0.000,0.686,0.0000,0.0000,0.0000,0.0000,0.0000,0.0000,0
2026-04-17,14:52:39,17820,1,-0.2052,-0.0350,0.0199,0.5855,14.7072,1,15.0068,0,0,54.2313,0.8169,4.8103,1.7013,168.2333,0.000,0.000,0.682,0.0000,0.0000,0.0000,0.0000,0.0000,0.0000,0
2026-04-17,14:52:39,17855,1,-0.3652,-0.0010,0.0157,0.4609,14.7076,1,15.0068,0,0,54.2328,0.5246,4.9821,4.2016,168.2164,0.000,0.000,0.679,0.0000,0.0000,0.0000,0.0000,0.0000,0.0000,0
2026-04-17,14:52:39,17891,1,-0.5252,-0.0024,0.0143,0.4215,14.7077,1,15.0068,0,0,54.2385,0.1545,5.0465,2.8285,168.1737,0.000,0.000,0.676,0.0000,0.0000,0.0000,0.0000,0.0000,0.0000,0
2026-04-17,14:52:39,17928,1,0.1158,0.0079,0.0141,0.4137,14.7077,1,15.0068,0,0,54.2282,-0.0087,5.1022,2.0211,168.2521,0.000,0.000,0.673,0.0000,0.0000,0.0000,0.0000,0.0000,0.0000,0
2026-04-17,14:52:39,17963,1,0.1790,0.0556,0.0285,0.8383,14.7074,1,15.0068,0,0,54.2583,1.0942,5.1808,2.5831,168.2952,0.000,0.000,0.670,0.0000,0.0000,0.0000,0.0000,0.0000,0.0000,0
2026-04-17,14:52:39,17998,1,0.0748,0.1079,0.0392,1.1519,14.7067,1,15.0068,0,0,54.2500,-0.2128,5.2800,2.7508,168.2992,0.000,0.000,0.666,0.0000,0.0000,0.0000,0.0000,0.0000,0.0000,0
2026-04-17,14:52:39,18034,1,-0.0852,0.0505,0.0309,0.9099,14.7061,1,15.0068,0,0,54.2382,0.4814,5.2932,0.9278,168.4074,0.000,0.000,0.663,0.0000,0.0000,0.0000,0.0000,0.0000,0.0000,0
2026-04-17,14:52:39,18069,1,-0.2452,-0.0487,0.0153,0.4499,14.7063,1,15.0068,0,0,54.2543,0.1625,5.2341,-0.9132,168.4492,0.000,0.000,0.660,0.0000,0.0000,0.0000,0.0000,0.0000,0.0000,0
2026-04-17,14:52:39,18105,1,-0.4052,-0.0205,0.0131,0.3856,14.7066,1,15.0068,0,0,54.2461,-0.4334,5.1999,-1.1460,168.4693,0.000,0.000,0.657,0.0000,0.0000,0.0000,0.0000,0.0000,0.0000,0
2026-04-17,14:52:39,18141,1,-0.5652,-0.0279,0.0146,0.4283,14.7069,1,15.0068,0,0,54.2306,-0.4710,5.1740,-0.7753,168.5094,0.000,0.000,0.654,0.0000,0.0000,0.0000,0.0000,0.0000,0.0000,0
2026-04-17,14:52:39,18176,1,0.1158,-0.0482,0.0095,0.2800,14.7071,1,15.0068,0,0,54.2217,-0.4682,5.2022,0.2628,168.5476,0.000,0.000,0.650,0.0000,0.0000,0.0000,0.0000,0.0000,0.0000,0
2026-04-17,14:52:39,18217,1,0.1632,0.0610,0.0272,0.7999,14.7068,1,15.0068,0,0,54.2156,0.1951,5.2193,0.1161,168.5545,0.000,0.000,0.648,0.0000,0.0000,0.0000,0.0000,0.0000,0.0000,0
2026-04-17,14:52:40,18253,1,0.0590,0.1516,0.0281,0.8259,14.7059,1,15.0068,0,0,54.2265,0.1705,5.1549,-1.6579,168.5799,0.000,0.000,0.645,0.0000,0.0000,0.0000,0.0000,0.0000,0.0000,0
2026-04-17,14:52:40,18289,1,-0.1010,0.0269,0.0208,0.6122,14.7052,1,15.0068,0,0,54.2260,0.0966,5.0075,-3.6277,168.6366,0.000,0.000,0.642,0.0000,0.0000,0.0000,0.0000,0.0000,0.0000,0
2026-04-17,14:52:40,18325,1,-0.2610,-0.0023,0.0132,0.3896,14.7054,1,15.0068,0,0,54.2299,0.1648,4.9053,-3.3226,168.6078,0.000,0.000,0.638,0.0000,0.0000,0.0000,0.0000,0.0000,0.0000,0
2026-04-17,14:52:40,18361,1,-0.4210,0.0092,0.0162,0.4763,14.7054,1,15.0068,0,0,54.2464,0.0477,4.8019,-3.4406,168.5548,0.000,0.000,0.635,0.0000,0.0000,0.0000,0.0000,0.0000,0.0000,0
2026-04-17,14:52:40,18396,1,0.1316,-0.0646,0.0183,0.5379,14.7057,1,15.0068,0,0,54.2274,-0.1441,4.7232,-2.7390,168.4294,0.000,0.000,0.632,0.0000,0.0000,0.0000,0.0000,0.0000,0.0000,0
2026-04-17,14:52:40,18431,1,0.1390,0.0731,0.0340,1.0012,14.7054,1,15.0068,0,0,54.2502,0.8646,4.5903,-3.5455,168.1414,0.000,0.000,0.629,0.0000,0.0000,0.0000,0.0000,0.0000,0.0000,0
2026-04-17,14:52:40,18467,1,-0.0210,0.0577,0.0328,0.9642,14.7047,1,15.0068,0,0,54.2221,-0.6903,4.2378,-8.2173,167.3371,0.000,0.000,0.626,0.0000,0.0000,0.0000,0.0000,0.0000,0.0000,0
2026-04-17,14:52:40,18503,1,-0.1810,-0.0060,0.0215,0.6322,14.7047,1,15.0068,0,0,54.3066,2.7053,3.7809,-10.7699,167.2989,0.000,0.000,0.622,0.0000,0.0000,0.0000,0.0000,0.0000,0.0000,0
2026-04-17,14:52:40,18539,1,-0.3410,0.0182,0.0152,0.4473,14.7049,1,15.0068,0,0,54.3294,0.4140,3.7154,-4.6373,167.8508,0.000,0.000,0.619,0.0000,0.0000,0.0000,0.0000,0.0000,0.0000,0
2026-04-17,14:52:40,18575,1,-0.5010,-0.0005,0.0151,0.4453,14.7048,1,15.0068,0,0,54.2987,0.0422,3.5804,-4.8742,167.9117,0.000,0.000,0.616,0.0000,0.0000,0.0000,0.0000,0.0000,0.0000,0
2026-04-17,14:52:40,18611,1,0.1632,0.0745,0.0211,0.6202,14.7046,1,15.0068,0,0,54.3267,0.1590,3.3379,-6.7065,168.0938,0.000,0.000,0.613,0.0000,0.0000,0.0000,0.0000,0.0000,0.0000,0
2026-04-17,14:52:40,18647,1,0.2264,0.1936,0.0254,0.7475,14.7036,1,15.0068,0,0,54.2859,-0.6182,3.1604,-6.0738,168.1497,0.000,0.000,0.610,0.0000,0.0000,0.0000,0.0000,0.0000,0.0000,0
2026-04-17,14:52:40,18682,1,0.2896,0.2400,0.0172,0.5059,14.7015,1,15.0068,0,0,54.3167,1.2094,2.9887,-5.5186,168.3068,0.000,0.000,0.606,0.0000,0.0000,0.0000,0.0000,0.0000,0.0000,0
2026-04-17,14:52:40,18718,1,0.3528,0.4056,0.0102,0.2989,14.6990,1,15.0068,0,0,54.3029,-0.2195,2.9843,-2.1400,168.3513,0.000,0.000,0.603,0.0000,0.0000,0.0000,0.0000,0.0000,0.0000,0
2026-04-17,14:52:40,18754,1,0.4160,0.3066,0.0070,0.2059,14.6960,1,15.0068,0,0,54.2846,-0.0071,3.0165,-0.0013,168.4592,0.000,0.000,0.600,0.0000,0.0000,0.0000,0.0000,0.0000,0.0000,0
2026-04-17,14:52:40,18790,1,0.4792,0.4846,0.0061,0.1794,14.6927,1,15.0068,0,0,54.3181,0.1096,3.0891,1.2833,168.4139,0.000,0.000,0.597,0.0000,0.0000,0.0000,0.0000,0.0000,0.0000,0
2026-04-17,14:52:40,18825,1,0.4866,0.3637,0.0405,1.1899,14.6904,1,15.0068,0,0,54.2765,0.5920,3.0729,-0.0165,168.5093,0.000,0.000,0.594,0.0000,0.0000,0.0000,0.0000,0.0000,0.0000,0
2026-04-17,14:52:40,18861,1,0.3266,0.4943,0.0170,0.5014,14.6861,1,15.0068,0,0,54.3130,-0.3748,3.1036,0.9346,168.4725,0.000,0.000,0.590,0.0000,0.0000,0.0000,0.0000,0.0000,0.0000,0
2026-04-17,14:52:40,18896,1,0.1666,0.2865,0.0127,0.3722,14.6834,1,15.0068,0,0,54.2391,-1.2674,3.1053,0.1380,168.5884,0.000,0.000,0.587,0.0000,0.0000,0.0000,0.0000,0.0000,0.0000,0
2026-04-17,14:52:40,18931,1,0.1474,0.2003,0.0031,0.0908,14.6819,1,15.0068,0,0,54.3539,2.9498,3.1454,1.1173,168.4861,0.000,0.000,0.584,0.0000,0.0000,0.0000,0.0000,0.0000,0.0000,0
2026-04-17,14:52:40,18967,1,0.2106,0.1385,0.0146,0.4281,14.6810,1,15.0068,0,0,54.2860,-2.2339,3.1981,1.1746,168.4477,0.000,0.000,0.581,0.0000,0.0000,0.0000,0.0000,0.0000,0.0000,0
2026-04-17,14:52:40,19000,1,0.2422,0.2722,0.0055,0.1626,14.6798,1,15.0068,0,0,54.3099,-0.9778,3.0542,-0.0086,168.1913,0.000,0.000,0.579,0.0000,0.0000,0.0000,0.0000,0.0000,0.0000,0
2026-04-17,14:52:40,19036,1,0.3054,0.1760,0.0312,0.9186,14.6783,1,15.0068,0,0,54.3127,0.1971,2.8596,-3.6233,168.1640,0.000,0.000,0.576,0.0000,0.0000,0.0000,0.0000,0.0000,0.0000,0
2026-04-17,14:52:40,19072,1,0.1454,0.2494,0.0265,0.7790,14.6763,1,15.0068,0,0,54.3750,1.5437,2.6719,-4.5981,168.0123,0.000,0.000,0.573,0.0000,0.0000,0.0000,0.0000,0.0000,0.0000,0
2026-04-17,14:52:40,19107,1,-0.0146,0.0970,0.0238,0.6994,14.6752,1,15.0068,0,0,54.3400,-1.0642,2.6482,-1.5886,167.9473,0.000,0.000,0.570,0.0000,0.0000,0.0000,0.0000,0.0000,0.0000,0
2026-04-17,14:52:40,19143,1,-0.1746,-0.0203,0.0137,0.4023,14.6751,1,15.0068,0,0,54.3945,1.6344,2.7582,2.1744,168.0663,0.000,0.000,0.566,0.0000,0.0000,0.0000,0.0000,0.0000,0.0000,0
2026-04-17,14:52:40,19180,1,0.1158,-0.0197,0.0110,0.3249,14.6753,1,15.0068,0,0,54.3917,-0.4712,2.9040,3.2559,168.0759,0.000,0.000,0.563,0.0000,0.0000,0.0000,0.0000,0.0000,0.0000,0
2026-04-17,14:52:40,19216,1,0.1790,0.0329,0.0304,0.8955,14.6751,1,15.0068,0,0,54.3663,0.2048,2.8830,1.1327,167.9544,0.000,0.000,0.560,0.0000,0.0000,0.0000,0.0000,0.0000,0.0000,0
2026-04-17,14:52:41,19252,1,0.0190,0.0791,0.0347,1.0203,14.6744,1,15.0068,0,0,54.4003,0.3007,2.8801,0.3038,167.6416,0.000,0.000,0.557,0.0000,0.0000,0.0000,0.0000,0.0000,0.0000,0
2026-04-17,14:52:41,19287,1,-0.1410,-0.0135,0.0281,0.8261,14.6744,1,15.0068,0,0,54.3839,-0.5672,2.7285,-2.5523,167.6114,0.000,0.000,0.554,0.0000,0.0000,0.0000,0.0000,0.0000,0.0000,0
2026-04-17,14:52:41,19322,1,-0.3010,-0.0483,0.0145,0.4277,14.6746,1,15.0068,0,0,54.4653,2.2401,2.6467,-2.3224,167.7815,0.000,0.000,0.550,0.0000,0.0000,0.0000,0.0000,0.0000,0.0000,0
2026-04-17,14:52:41,19358,1,0.1158,-0.0382,0.0101,0.2977,14.6747,1,15.0068,0,0,54.4300,-1.3083,2.5642,-2.7053,167.9033,0.000,0.000,0.547,0.0000,0.0000,0.0000,0.0000,0.0000,0.0000,0
2026-04-17,14:52:41,19394,1,0.1790,0.0392,0.0306,0.8987,14.6746,1,15.0068,0,0,54.4524,1.2673,2.4594,-2.7942,167.9120,0.000,0.000,0.544,0.0000,0.0000,0.0000,0.0000,0.0000,0.0000,0
2026-04-17,14:52:41,19431,1,0.0190,0.0501,0.0389,1.1452,14.6740,1,15.0068,0,0,54.4347,-0.8017,2.3818,-2.3867,168.0483,0.000,0.000,0.541,0.0000,0.0000,0.0000,0.0000,0.0000,0.0000,0
2026-04-17,14:52:41,19466,1,-0.1410,-0.0107,0.0313,0.9216,14.6740,1,15.0068,0,0,54.4121,-0.4338,2.2802,-3.2409,168.1331,0.000,0.000,0.538,0.0000,0.0000,0.0000,0.0000,0.0000,0.0000,0
2026-04-17,14:52:41,19501,1,-0.3010,-0.0908,0.0130,0.3834,14.6743,1,15.0068,0,0,54.4388,-0.2319,2.1221,-4.4069,168.2048,0.000,0.000,0.534,0.0000,0.0000,0.0000,0.0000,0.0000,0.0000,0
2026-04-17,14:52:41,19536,1,-0.4610,-0.0011,0.0165,0.4839,14.6743,1,15.0068,0,0,54.3930,-0.7986,2.0339,-3.4546,168.2912,0.000,0.000,0.531,0.0000,0.0000,0.0000,0.0000,0.0000,0.0000,0
2026-04-17,14:52:41,19572,1,0.1474,0.0461,0.0187,0.5504,14.6743,1,15.0068,0,0,54.4013,0.3276,1.9506,-2.9363,168.3796,0.000,0.000,0.528,0.0000,0.0000,0.0000,0.0000,0.0000,0.0000,0
2026-04-17,14:52:41,19608,1,0.2106,0.1011,0.0303,0.8901,14.6737,1,15.0068,0,0,54.4001,-0.1962,1.9413,-1.1744,168.4942,0.000,0.000,0.525,0.0000,0.0000,0.0000,0.0000,0.0000,0.0000,0
2026-04-17,14:52:41,19644,1,0.0506,0.2482,0.0150,0.4403,14.6720,1,15.0068,0,0,54.3947,-0.8027,1.9821,0.4761,168.5264,0.000,0.000,0.522,0.0000,0.0000,0.0000,0.0000,0.0000,0.0000,0
2026-04-17,14:52:41,19680,1,-0.1094,-0.0087,0.0139,0.4092,14.6714,1,15.0068,0,0,54.3876,-0.4102,2.1613,4.0427,168.6765,0.000,0.000,0.518,0.0000,0.0000,0.0000,0.0000,0.0000,0.0000,0
2026-04-17,14:52:41,19716,1,0.1632,0.1197,0.0165,0.4860,14.6711,1,15.0068,0,0,54.3930,-0.0225,2.4419,6.9609,168.7053,0.000,0.000,0.515,0.0000,0.0000,0.0000,0.0000,0.0000,0.0000,0
2026-04-17,14:52:41,19751,1,0.2264,0.3293,0.0033,0.0972,14.6693,1,15.0068,0,0,54.3534,-0.9553,2.7156,8.0717,168.7332,0.000,0.000,0.512,0.0000,0.0000,0.0000,0.0000,0.0000,0.0000,0
2026-04-17,14:52:41,19785,1,0.2580,0.1249,0.0059,0.1727,14.6682,1,15.0068,0,0,54.3357,-0.7703,2.8177,6.9586,168.7877,0.000,0.000,0.510,0.0000,0.0000,0.0000,0.0000,0.0000,0.0000,0
2026-04-17,14:52:41,19820,1,0.3212,0.4046,-0.0009,0.0255,14.6652,1,15.0068,0,0,54.3169,-1.6899,2.9242,4.1278,168.7622,0.000,0.000,0.507,0.0000,0.0000,0.0000,0.0000,0.0000,0.0000,0
2026-04-17,14:52:41,19856,1,0.3844,0.1441,0.0168,0.4941,14.6632,1,15.0068,0,0,54.3469,2.2007,3.0493,3.9532,168.8390,0.000,0.000,0.504,0.0000,0.0000,0.0000,0.0000,0.0000,0.0000,0
2026-04-17,14:52:41,19892,1,0.4476,0.2069,0.0266,0.7823,14.6606,1,15.0068,0,0,54.3298,-0.9287,3.1850,4.0881,168.8042,0.000,0.000,0.501,0.0000,0.0000,0.0000,0.0000,0.0000,0.0000,0
2026-04-17,14:52:41,19927,1,0.5108,0.7275,0.0073,0.2154,14.6572,1,15.0068,0,0,54.3016,-0.8277,3.1515,0.3619,168.8959,0.000,0.000,0.498,0.0000,0.0000,0.0000,0.0000,0.0000,0.0000,0
2026-04-17,14:52:41,19963,1,0.5740,0.5346,0.0091,0.2680,14.6528,1,15.0068,0,0,54.3043,0.5105,3.0901,-1.3544,168.8362,0.000,0.000,0.494,0.0000,0.0000,0.0000,0.0000,0.0000,0.0000,0
2026-04-17,14:52:41,19998,1,0.6372,0.6814,-0.0124,0.3643,14.6475,1,15.0068,0,0,54.2933,-1.2474,3.0354,-1.7294,168.8282,0.000,0.000,0.491,0.0000,0.0000,0.0000,0.0000,0.0000,0.0000,0
2026-04-17,14:52:41,20033,1,0.7004,0.6589,0.0165,0.4841,14.6440,1,15.0068,0,0,54.3401,1.0396,2.9897,-1.5590,168.8220,0.000,0.000,0.488,0.0000,0.0000,0.0000,0.0000,0.0000,0.0000,0
2026-04-17,14:52:41,20069,1,0.7636,0.8935,0.0047,0.1380,14.6380,1,15.0068,0,0,54.3516,0.1380,2.9062,-2.5031,168.7542,0.000,0.000,0.485,0.0000,0.0000,0.0000,0.0000,0.0000,0.0000,0
2026-04-17,14:52:41,20105,1,0.8268,0.8072,0.0052,0.1543,14.6321,1,15.0068,0,0,54.3682,0.7773,2.7830,-3.4982,168.7888,0.000,0.000,0.482,0.0000,0.0000,0.0000,0.0000,0.0000,0.0000,0
2026-04-17,14:52:41,20141,1,0.8900,0.8820,0.0220,0.6469,14.6266,1,15.0068,0,0,54.3730,-0.8562,2.5908,-5.1533,168.6826,0.000,0.000,0.478,0.0000,0.0000,0.0000,0.0000,0.0000,0.0000,0
2026-04-17,14:52:41,20177,1,0.9532,1.0799,-0.0022,0.0658,14.6185,1,15.0068,0,0,54.3227,-1.9659,2.5160,-3.2473,168.7040,0.000,0.000,0.475,0.0000,0.0000,0.0000,0.0000,0.0000,0.0000,0
2026-04-17,14:52:41,20212,1,1.0164,0.8071,0.0300,0.8813,14.6123,1,15.0068,0,0,54.4382,4.6094,2.4262,-3.1462,168.7063,0.000,0.000,0.472,0.0000,0.0000,0.0000,0.0000,0.0000,0.0000,0
2026-04-17,14:52:42,20247,1,1.0796,1.1394,0.0090,0.2648,14.6043,1,15.0068,0,0,54.3103,-3.0190,2.3582,-2.7629,168.6123,0.000,0.000,0.469,0.0000,0.0000,0.0000,0.0000,0.0000,0.0000,0
2026-04-17,14:52:42,20283,1,1.1428,0.9941,0.0288,0.8470,14.5964,1,15.0068,0,0,54.3856,5.1160,2.1613,-5.1750,168.7641,0.000,0.000,0.466,0.0000,0.0000,0.0000,0.0000,0.0000,0.0000,0
2026-04-17,14:52:42,20318,1,1.2060,1.3745,-0.0012,0.0352,14.5868,1,15.0068,0,0,54.3436,-3.1142,2.0158,-5.0280,168.5710,0.000,0.000,0.462,0.0000,0.0000,0.0000,0.0000,0.0000,0.0000,0
2026-04-17,14:52:42,20353,1,1.2692,1.1849,0.0197,0.5794,14.5786,1,15.0068,0,0,54.3209,3.6996,1.8232,-6.0275,168.8491,0.000,0.000,0.459,0.0000,0.0000,0.0000,0.0000,0.0000,0.0000,0
2026-04-17,14:52:42,20389,1,1.3324,1.2715,0.0048,0.1418,14.5681,1,15.0068,0,0,54.3785,-0.2546,1.5406,-8.0333,168.6328,0.000,0.000,0.456,0.0000,0.0000,0.0000,0.0000,0.0000,0.0000,0
2026-04-17,14:52:42,20424,1,1.3956,1.5708,0.0006,0.0171,14.5582,1,15.0068,0,0,54.3216,0.4002,1.3471,-6.7559,168.8725,0.000,0.000,0.453,0.0000,0.0000,0.0000,0.0000,0.0000,0.0000,0
2026-04-17,14:52:42,20459,1,1.4588,1.2692,0.0182,0.5355,14.5480,1,15.0068,0,0,54.3850,2.5157,1.2918,-3.4446,168.7165,0.000,0.000,0.450,0.0000,0.0000,0.0000,0.0000,0.0000,0.0000,0
2026-04-17,14:52:42,20495,1,1.5220,1.4044,0.0149,0.4374,14.5365,1,15.0068,0,0,54.3084,-2.7598,1.2399,-2.3467,168.7400,0.000,0.000,0.446,0.0000,0.0000,0.0000,0.0000,0.0000,0.0000,0
2026-04-17,14:52:42,20531,1,1.5852,1.7125,-0.0007,0.0206,14.5244,1,15.0068,0,0,54.3521,1.9947,1.2206,-1.3715,168.7108,0.000,0.000,0.443,0.0000,0.0000,0.0000,0.0000,0.0000,0.0000,0
2026-04-17,14:52:42,20568,1,1.6326,1.6890,0.0078,0.2281,14.5129,1,15.0068,0,0,54.3789,1.4244,1.2478,-0.7270,168.7425,0.000,0.000,0.441,0.0000,0.0000,0.0000,0.0000,0.0000,0.0000,0
2026-04-17,14:52:42,20603,1,1.6958,1.6756,0.0171,0.5018,14.5002,1,15.0068,0,0,54.3261,0.7982,1.3807,2.9680,168.8100,0.000,0.000,0.438,0.0000,0.0000,0.0000,0.0000,0.0000,0.0000,0
2026-04-17,14:52:42,20638,1,1.7590,1.5458,0.0179,0.5279,14.4872,1,15.0068,0,0,54.3390,-0.0708,1.5743,4.9832,168.7098,0.000,0.000,0.434,0.0000,0.0000,0.0000,0.0000,0.0000,0.0000,0
2026-04-17,14:52:42,20674,1,1.8222,1.6624,0.0152,0.4480,14.4736,1,15.0068,0,0,54.3137,-1.8073,1.7636,5.6224,168.8071,0.000,0.000,0.431,0.0000,0.0000,0.0000,0.0000,0.0000,0.0000,0
2026-04-17,14:52:42,20710,1,1.8854,1.8147,0.0029,0.0855,14.4590,1,15.0068,0,0,54.3809,1.7769,1.9816,6.3658,168.6927,0.000,0.000,0.428,0.0000,0.0000,0.0000,0.0000,0.0000,0.0000,0
2026-04-17,14:52:42,20745,1,1.9486,1.9037,0.0102,0.2999,14.4453,1,15.0068,0,0,54.3553,0.0012,2.1109,4.7211,168.8732,0.000,0.000,0.425,0.0000,0.0000,0.0000,0.0000,0.0000,0.0000,0
2026-04-17,14:52:42,20781,1,2.0118,2.0544,0.0021,0.0615,14.4299,1,15.0068,0,0,54.3317,-0.2461,2.1597,2.3527,168.6561,0.000,0.000,0.422,0.0000,0.0000,0.0000,0.0000,0.0000,0.0000,0
2026-04-17,14:52:42,20817,1,2.0750,1.9951,0.0130,0.3826,14.4148,1,15.0068,0,0,54.3614,0.7629,2.1916,1.5763,168.8403,0.000,0.000,0.418,0.0000,0.0000,0.0000,0.0000,0.0000,0.0000,0
2026-04-17,14:52:42,20852,1,2.1382,2.1495,0.0034,0.0990,14.3990,1,15.0068,0,0,54.3653,-0.0757,2.2662,2.2410,168.6503,0.000,0.000,0.415,0.0000,0.0000,0.0000,0.0000,0.0000,0.0000,0
2026-04-17,14:52:42,20889,1,2.2014,2.0699,0.0198,0.5812,14.3826,1,15.0068,0,0,54.3355,-1.0478,2.3265,2.0410,168.7868,0.000,0.000,0.412,0.0000,0.0000,0.0000,0.0000,0.0000,0.0000,0
2026-04-17,14:52:42,20924,1,2.2646,2.1595,0.0136,0.4001,14.3657,1,15.0068,0,0,54.3356,-2.0125,2.3553,1.0945,168.6428,0.000,0.000,0.409,0.0000,0.0000,0.0000,0.0000,0.0000,0.0000,0
2026-04-17,14:52:42,20959,1,2.3278,2.2025,0.0192,0.5645,14.3491,1,15.0068,0,0,54.3703,1.9981,2.3371,-0.0052,168.8179,0.000,0.000,0.406,0.0000,0.0000,0.0000,0.0000,0.0000,0.0000,0
2026-04-17,14:52:42,20995,1,2.3910,2.2881,0.0151,0.4427,14.3308,1,15.0068,0,0,54.2851,-3.3426,2.2730,-1.8826,168.6696,0.000,0.000,0.402,0.0000,0.0000,0.0000,0.0000,0.0000,0.0000,0
2026-04-17,14:52:42,21031,1,2.4542,2.5401,0.0104,0.3067,14.3125,1,15.0068,0,0,54.2950,0.8055,2.1969,-1.7727,168.7716,0.000,0.000,0.399,0.0000,0.0000,0.0000,0.0000,0.0000,0.0000,0
2026-04-17,14:52:42,21067,1,2.5174,2.4851,0.0112,0.3301,14.2935,1,15.0068,0,0,54.3318,0.9897,2.1667,-1.6137,168.7367,0.000,0.000,0.396,0.0000,0.0000,0.0000,0.0000,0.0000,0.0000,0
2026-04-17,14:52:42,21103,1,2.5806,2.5319,0.0107,0.3147,14.2739,1,15.0068,0,0,54.3352,1.0791,2.1669,-0.2486,168.7361,0.000,0.000,0.393,0.0000,0.0000,0.0000,0.0000,0.0000,0.0000,0
2026-04-17,14:52:42,21138,1,2.6438,2.5710,0.0158,0.4636,14.2549,1,15.0068,0,0,54.3655,-0.1016,2.2828,2.3692,168.7491,0.000,0.000,0.390,0.0000,0.0000,0.0000,0.0000,0.0000,0.0000,0
2026-04-17,14:52:42,21173,1,2.7070,2.6587,0.0128,0.3756,14.2348,1,15.0068,0,0,54.3547,0.7742,2.4436,4.0802,168.6952,0.000,0.000,0.386,0.0000,0.0000,0.0000,0.0000,0.0000,0.0000,0
2026-04-17,14:52:42,21209,1,2.7702,2.7852,0.0042,0.1246,14.2137,1,15.0068,0,0,54.3592,-0.8724,2.6206,5.1498,168.7803,0.000,0.000,0.383,0.0000,0.0000,0.0000,0.0000,0.0000,0.0000,0
2026-04-17,14:52:43,21245,1,2.8334,2.8080,0.0103,0.3028,14.1927,1,15.0068,0,0,54.3525,-0.2936,2.7742,4.7503,168.7470,0.000,0.000,0.380,0.0000,0.0000,0.0000,0.0000,0.0000,0.0000,0
2026-04-17,14:52:43,21282,1,2.8966,2.8411,0.0097,0.2856,14.1707,1,15.0068,0,0,54.3786,0.2632,2.7916,1.5896,168.7876,0.000,0.000,0.377,0.0000,0.0000,0.0000,0.0000,0.0000,0.0000,0
2026-04-17,14:52:43,21317,1,2.9598,2.8486,0.0148,0.4358,14.1483,1,15.0068,0,0,54.3748,1.2376,2.7249,-1.0055,168.7631,0.000,0.000,0.374,0.0000,0.0000,0.0000,0.0000,0.0000,0.0000,0
2026-04-17,14:52:43,21358,1,3.0072,3.0488,0.0061,0.1791,14.1223,1,15.0068,0,0,54.3119,-2.1145,2.6716,-1.9414,168.7559,0.000,0.000,0.371,0.0000,0.0000,0.0000,0.0000,0.0000,0.0000,0
2026-04-17,14:52:43,21393,1,3.0704,3.0853,0.0090,0.2659,14.1000,1,15.0068,0,0,54.2996,-0.2916,2.4900,-4.4774,168.6860,0.000,0.000,0.368,0.0000,0.0000,0.0000,0.0000,0.0000,0.0000,0
2026-04-17,14:52:43,21429,1,3.1336,3.0207,0.0151,0.4446,14.0764,1,15.0068,0,0,54.3530,0.9943,2.3950,-3.2568,168.7312,0.000,0.000,0.365,0.0000,0.0000,0.0000,0.0000,0.0000,0.0000,0
2026-04-17,14:52:43,21464,1,3.1968,3.1561,0.0149,0.4395,14.0529,1,15.0068,0,0,54.3470,0.1529,2.4365,-0.0588,168.6190,0.000,0.000,0.362,0.0000,0.0000,0.0000,0.0000,0.0000,0.0000,0
2026-04-17,14:52:43,21499,1,3.2600,3.1976,0.0137,0.4021,14.0289,1,15.0068,0,0,54.4014,2.0145,2.5348,1.7858,168.6673,0.000,0.000,0.358,0.0000,0.0000,0.0000,0.0000,0.0000,0.0000,0
